
Integration time [ms]: 4000,000
Averaging Nr. [scans]: 1
Smoothing Nr. [pixels]: 0
Data measured with spectrometer [name]: 1804341U2
Wave   ;Sample   ;Dark     ;Reference;Scope Corrected for Dark
[nm]   ;[counts] ;[counts] ;[counts] 

 317,76;   20,000;   20,000;    0,000; 0,00000
 317,78;  600,000;  600,000;    0,000; 0,00000
 317,80;    5,000;    5,000;    0,000; 0,00000
 317,82; 1142,000; 1142,000;    0,000; 0,00000
 317,84; -196,000; -196,000;    0,000; 0,00000
 317,86; -144,000; -144,000;    0,000; 0,00000
 317,88;  492,000;  492,000;    0,000; 0,00000
 317,90;  304,000;  304,000;    0,000; 0,00000
 317,92; -287,000; -287,000;    0,000; 0,00000
 317,94; -100,000; -100,000;    0,000; 0,00000
 317,96;  154,000;  154,000;    0,000; 0,00000
 317,98; -218,000; -218,000;    0,000; 0,00000
 318,00; -442,000; -442,000;    0,000; 0,00000
 318,02; -176,000; -176,000;    0,000; 0,00000
 318,04; -316,000; -316,000;    0,000; 0,00000
 318,05;  165,000;  165,000;    0,000; 0,00000
 318,07; -371,000; -371,000;    0,000; 0,00000
 318,09;  275,000;  275,000;    0,000; 0,00000
 318,11;  856,000;  856,000;    0,000; 0,00000
 318,13;  696,000;  696,000;    0,000; 0,00000
 318,15;  149,000;  149,000;    0,000; 0,00000
 318,17; -314,000; -314,000;    0,000; 0,00000
 318,19;   26,000;   26,000;    0,000; 0,00000
 318,21;  -78,000;  -78,000;    0,000; 0,00000
 318,23;  -88,000;  -88,000;    0,000; 0,00000
 318,25;   32,000;   32,000;    0,000; 0,00000
 318,27;  421,000;  421,000;    0,000; 0,00000
 318,29;   77,000;   77,000;    0,000; 0,00000
 318,30;   -5,000;   -5,000;    0,000; 0,00000
 318,32;  -58,000;  -58,000;    0,000; 0,00000
 318,34; -276,000; -276,000;    0,000; 0,00000
 318,36;  758,000;  758,000;    0,000; 0,00000
 318,38; -273,000; -273,000;    0,000; 0,00000
 318,40;  167,000;  167,000;    0,000; 0,00000
 318,42;  367,000;  367,000;    0,000; 0,00000
 318,44;    0,000;    0,000;    0,000; 0,00000
 318,46;  -33,000;  -33,000;    0,000; 0,00000
 318,48; -527,000; -527,000;    0,000; 0,00000
 318,50;   28,000;   28,000;    0,000; 0,00000
 318,52;  661,000;  661,000;    0,000; 0,00000
 318,54; -378,000; -378,000;    0,000; 0,00000
 318,55; -327,000; -327,000;    0,000; 0,00000
 318,57;  325,000;  325,000;    0,000; 0,00000
 318,59;  -12,000;  -12,000;    0,000; 0,00000
 318,61;  -85,000;  -85,000;    0,000; 0,00000
 318,63; -341,000; -341,000;    0,000; 0,00000
 318,65;  791,000;  791,000;    0,000; 0,00000
 318,67; -100,000; -100,000;    0,000; 0,00000
 318,69;   58,000;   58,000;    0,000; 0,00000
 318,71; -189,000; -189,000;    0,000; 0,00000
 318,73;  166,000;  166,000;    0,000; 0,00000
 318,75;  279,000;  279,000;    0,000; 0,00000
 318,77;  -78,000;  -78,000;    0,000; 0,00000
 318,79;  509,000;  509,000;    0,000; 0,00000
 318,80;  656,000;  656,000;    0,000; 0,00000
 318,82;  265,000;  265,000;    0,000; 0,00000
 318,84; -180,000; -180,000;    0,000; 0,00000
 318,86;  535,000;  535,000;    0,000; 0,00000
 318,88;  155,000;  155,000;    0,000; 0,00000
 318,90;  558,000;  558,000;    0,000; 0,00000
 318,92;  133,000;  133,000;    0,000; 0,00000
 318,94;  650,000;  650,000;    0,000; 0,00000
 318,96; -228,000; -228,000;    0,000; 0,00000
 318,98;  439,000;  439,000;    0,000; 0,00000
 319,00;  -21,000;  -21,000;    0,000; 0,00000
 319,02; -364,000; -364,000;    0,000; 0,00000
 319,03;  -95,000;  -95,000;    0,000; 0,00000
 319,05;   -2,000;   -2,000;    0,000; 0,00000
 319,07;  262,000;  262,000;    0,000; 0,00000
 319,09;  191,000;  191,000;    0,000; 0,00000
 319,11;  334,000;  334,000;    0,000; 0,00000
 319,13;  616,000;  616,000;    0,000; 0,00000
 319,15; -261,000; -261,000;    0,000; 0,00000
 319,17; -185,000; -185,000;    0,000; 0,00000
 319,19;  362,000;  362,000;    0,000; 0,00000
 319,21;  505,000;  505,000;    0,000; 0,00000
 319,23; -296,000; -296,000;    0,000; 0,00000
 319,25; -367,000; -367,000;    0,000; 0,00000
 319,26;  326,000;  326,000;    0,000; 0,00000
 319,28;  245,000;  245,000;    0,000; 0,00000
 319,30; -543,000; -543,000;    0,000; 0,00000
 319,32;  -88,000;  -88,000;    0,000; 0,00000
 319,34;  637,000;  637,000;    0,000; 0,00000
 319,36;  837,000;  837,000;    0,000; 0,00000
 319,38; -477,000; -477,000;    0,000; 0,00000
 319,40;  -42,000;  -42,000;    0,000; 0,00000
 319,42;  -84,000;  -84,000;    0,000; 0,00000
 319,44;  370,000;  370,000;    0,000; 0,00000
 319,46;  581,000;  581,000;    0,000; 0,00000
 319,47;  621,000;  621,000;    0,000; 0,00000
 319,49;   23,000;   23,000;    0,000; 0,00000
 319,51;  290,000;  290,000;    0,000; 0,00000
 319,53; -711,000; -711,000;    0,000; 0,00000
 319,55; -308,000; -308,000;    0,000; 0,00000
 319,57;  307,000;  307,000;    0,000; 0,00000
 319,59;   99,000;   99,000;    0,000; 0,00000
 319,61; -393,000; -393,000;    0,000; 0,00000
 319,63; -214,000; -214,000;    0,000; 0,00000
 319,65;  524,000;  524,000;    0,000; 0,00000
 319,67;  369,000;  369,000;    0,000; 0,00000
 319,68;   76,000;   76,000;    0,000; 0,00000
 319,70;   39,000;   39,000;    0,000; 0,00000
 319,72; -293,000; -293,000;    0,000; 0,00000
 319,74;  -68,000;  -68,000;    0,000; 0,00000
 319,76;   55,000;   55,000;    0,000; 0,00000
 319,78;  348,000;  348,000;    0,000; 0,00000
 319,80;  182,000;  182,000;    0,000; 0,00000
 319,82; 1503,000; 1503,000;    0,000; 0,00000
 319,84;   98,000;   98,000;    0,000; 0,00000
 319,86;  233,000;  233,000;    0,000; 0,00000
 319,88;  242,000;  242,000;    0,000; 0,00000
 319,89;  403,000;  403,000;    0,000; 0,00000
 319,91; -216,000; -216,000;    0,000; 0,00000
 319,93;  403,000;  403,000;    0,000; 0,00000
 319,95; -197,000; -197,000;    0,000; 0,00000
 319,97;  455,000;  455,000;    0,000; 0,00000
 319,99; -432,000; -432,000;    0,000; 0,00000
 320,01; -154,000; -154,000;    0,000; 0,00000
 320,03;   30,000;   30,000;    0,000; 0,00000
 320,05; 1321,000; 1321,000;    0,000; 0,00000
 320,07;  -28,000;  -28,000;    0,000; 0,00000
 320,08;  446,000;  446,000;    0,000; 0,00000
 320,10;  407,000;  407,000;    0,000; 0,00000
 320,12;  237,000;  237,000;    0,000; 0,00000
 320,14; -219,000; -219,000;    0,000; 0,00000
 320,16; -186,000; -186,000;    0,000; 0,00000
 320,18;   19,000;   19,000;    0,000; 0,00000
 320,20;  967,000;  967,000;    0,000; 0,00000
 320,22; -353,000; -353,000;    0,000; 0,00000
 320,24;  624,000;  624,000;    0,000; 0,00000
 320,26;  -33,000;  -33,000;    0,000; 0,00000
 320,28;  -99,000;  -99,000;    0,000; 0,00000
 320,29;   22,000;   22,000;    0,000; 0,00000
 320,31;  191,000;  191,000;    0,000; 0,00000
 320,33;  194,000;  194,000;    0,000; 0,00000
 320,35; 1099,000; 1099,000;    0,000; 0,00000
 320,37;  -49,000;  -49,000;    0,000; 0,00000
 320,39;   77,000;   77,000;    0,000; 0,00000
 320,41;  104,000;  104,000;    0,000; 0,00000
 320,43;  329,000;  329,000;    0,000; 0,00000
 320,45; -382,000; -382,000;    0,000; 0,00000
 320,46; -401,000; -401,000;    0,000; 0,00000
 320,48;  355,000;  355,000;    0,000; 0,00000
 320,50;   70,000;   70,000;    0,000; 0,00000
 320,52; -199,000; -199,000;    0,000; 0,00000
 320,54; -125,000; -125,000;    0,000; 0,00000
 320,56;  494,000;  494,000;    0,000; 0,00000
 320,58;  797,000;  797,000;    0,000; 0,00000
 320,60;  -71,000;  -71,000;    0,000; 0,00000
 320,62; -126,000; -126,000;    0,000; 0,00000
 320,64;  148,000;  148,000;    0,000; 0,00000
 320,65;  123,000;  123,000;    0,000; 0,00000
 320,67; -573,000; -573,000;    0,000; 0,00000
 320,69; -278,000; -278,000;    0,000; 0,00000
 320,71;  647,000;  647,000;    0,000; 0,00000
 320,73;  284,000;  284,000;    0,000; 0,00000
 320,75; -316,000; -316,000;    0,000; 0,00000
 320,77; -509,000; -509,000;    0,000; 0,00000
 320,79;   43,000;   43,000;    0,000; 0,00000
 320,81;  213,000;  213,000;    0,000; 0,00000
 320,83;  148,000;  148,000;    0,000; 0,00000
 320,84;  234,000;  234,000;    0,000; 0,00000
 320,86;  956,000;  956,000;    0,000; 0,00000
 320,88;  137,000;  137,000;    0,000; 0,00000
 320,90;  153,000;  153,000;    0,000; 0,00000
 320,92;  354,000;  354,000;    0,000; 0,00000
 320,94;   81,000;   81,000;    0,000; 0,00000
 320,96;  500,000;  500,000;    0,000; 0,00000
 320,98; -531,000; -531,000;    0,000; 0,00000
 321,00; -104,000; -104,000;    0,000; 0,00000
 321,01;  869,000;  869,000;    0,000; 0,00000
 321,03;  110,000;  110,000;    0,000; 0,00000
 321,05;  278,000;  278,000;    0,000; 0,00000
 321,07; -334,000; -334,000;    0,000; 0,00000
 321,09;  440,000;  440,000;    0,000; 0,00000
 321,11;  740,000;  740,000;    0,000; 0,00000
 321,13; -461,000; -461,000;    0,000; 0,00000
 321,15;  191,000;  191,000;    0,000; 0,00000
 321,17;  347,000;  347,000;    0,000; 0,00000
 321,18;  240,000;  240,000;    0,000; 0,00000
 321,20; -306,000; -306,000;    0,000; 0,00000
 321,22;  555,000;  555,000;    0,000; 0,00000
 321,24;  108,000;  108,000;    0,000; 0,00000
 321,26;  425,000;  425,000;    0,000; 0,00000
 321,28; -234,000; -234,000;    0,000; 0,00000
 321,30;  427,000;  427,000;    0,000; 0,00000
 321,32;  -54,000;  -54,000;    0,000; 0,00000
 321,34;  344,000;  344,000;    0,000; 0,00000
 321,35; -449,000; -449,000;    0,000; 0,00000
 321,37;  121,000;  121,000;    0,000; 0,00000
 321,39; -286,000; -286,000;    0,000; 0,00000
 321,41;  457,000;  457,000;    0,000; 0,00000
 321,43; -236,000; -236,000;    0,000; 0,00000
 321,45;  -97,000;  -97,000;    0,000; 0,00000
 321,47;  435,000;  435,000;    0,000; 0,00000
 321,49;  531,000;  531,000;    0,000; 0,00000
 321,51; -577,000; -577,000;    0,000; 0,00000
 321,52;  400,000;  400,000;    0,000; 0,00000
 321,54;    0,000;    0,000;    0,000; 0,00000
 321,56;  193,000;  193,000;    0,000; 0,00000
 321,58; -486,000; -486,000;    0,000; 0,00000
 321,60;    3,000;    3,000;    0,000; 0,00000
 321,62;  -82,000;  -82,000;    0,000; 0,00000
 321,64;  640,000;  640,000;    0,000; 0,00000
 321,66; -495,000; -495,000;    0,000; 0,00000
 321,67; -259,000; -259,000;    0,000; 0,00000
 321,69;  -94,000;  -94,000;    0,000; 0,00000
 321,71; -131,000; -131,000;    0,000; 0,00000
 321,73;  492,000;  492,000;    0,000; 0,00000
 321,75; 1160,000; 1160,000;    0,000; 0,00000
 321,77;  147,000;  147,000;    0,000; 0,00000
 321,79;  797,000;  797,000;    0,000; 0,00000
 321,81; -393,000; -393,000;    0,000; 0,00000
 321,83; -178,000; -178,000;    0,000; 0,00000
 321,84;  174,000;  174,000;    0,000; 0,00000
 321,86;  763,000;  763,000;    0,000; 0,00000
 321,88;  653,000;  653,000;    0,000; 0,00000
 321,90;  285,000;  285,000;    0,000; 0,00000
 321,92;   -9,000;   -9,000;    0,000; 0,00000
 321,94;  -37,000;  -37,000;    0,000; 0,00000
 321,96; -180,000; -180,000;    0,000; 0,00000
 321,98;  486,000;  486,000;    0,000; 0,00000
 321,99; -109,000; -109,000;    0,000; 0,00000
 322,01;   49,000;   49,000;    0,000; 0,00000
 322,03;  -36,000;  -36,000;    0,000; 0,00000
 322,05; -292,000; -292,000;    0,000; 0,00000
 322,07;  -23,000;  -23,000;    0,000; 0,00000
 322,09;   97,000;   97,000;    0,000; 0,00000
 322,11; -185,000; -185,000;    0,000; 0,00000
 322,13;  156,000;  156,000;    0,000; 0,00000
 322,14;  -78,000;  -78,000;    0,000; 0,00000
 322,16;  112,000;  112,000;    0,000; 0,00000
 322,18; -667,000; -667,000;    0,000; 0,00000
 322,20; -285,000; -285,000;    0,000; 0,00000
 322,22;  178,000;  178,000;    0,000; 0,00000
 322,24; 1129,000; 1129,000;    0,000; 0,00000
 322,26;  208,000;  208,000;    0,000; 0,00000
 322,28; -116,000; -116,000;    0,000; 0,00000
 322,29;  738,000;  738,000;    0,000; 0,00000
 322,31;  -27,000;  -27,000;    0,000; 0,00000
 322,33; -373,000; -373,000;    0,000; 0,00000
 322,35;  510,000;  510,000;    0,000; 0,00000
 322,37;  302,000;  302,000;    0,000; 0,00000
 322,39;  117,000;  117,000;    0,000; 0,00000
 322,41; -453,000; -453,000;    0,000; 0,00000
 322,43; -277,000; -277,000;    0,000; 0,00000
 322,44;  -41,000;  -41,000;    0,000; 0,00000
 322,46;   55,000;   55,000;    0,000; 0,00000
 322,48;   19,000;   19,000;    0,000; 0,00000
 322,50;  -57,000;  -57,000;    0,000; 0,00000
 322,52;  582,000;  582,000;    0,000; 0,00000
 322,54;  221,000;  221,000;    0,000; 0,00000
 322,56; -152,000; -152,000;    0,000; 0,00000
 322,58; -209,000; -209,000;    0,000; 0,00000
 322,59; -368,000; -368,000;    0,000; 0,00000
 322,61; 1063,000; 1063,000;    0,000; 0,00000
 322,63; -233,000; -233,000;    0,000; 0,00000
 322,65;   96,000;   96,000;    0,000; 0,00000
 322,67;  -76,000;  -76,000;    0,000; 0,00000
 322,69;  368,000;  368,000;    0,000; 0,00000
 322,71; -320,000; -320,000;    0,000; 0,00000
 322,73;  -61,000;  -61,000;    0,000; 0,00000
 322,74;  378,000;  378,000;    0,000; 0,00000
 322,76;  378,000;  378,000;    0,000; 0,00000
 322,78; -256,000; -256,000;    0,000; 0,00000
 322,80;  -34,000;  -34,000;    0,000; 0,00000
 322,82;  180,000;  180,000;    0,000; 0,00000
 322,84;  479,000;  479,000;    0,000; 0,00000
 322,86;   93,000;   93,000;    0,000; 0,00000
 322,87; -384,000; -384,000;    0,000; 0,00000
 322,89;  111,000;  111,000;    0,000; 0,00000
 322,91;  572,000;  572,000;    0,000; 0,00000
 322,93; -382,000; -382,000;    0,000; 0,00000
 322,95; 1606,000; 1606,000;    0,000; 0,00000
 322,97;   64,000;   64,000;    0,000; 0,00000
 322,99;  503,000;  503,000;    0,000; 0,00000
 323,01;   98,000;   98,000;    0,000; 0,00000
 323,02;  313,000;  313,000;    0,000; 0,00000
 323,04;  547,000;  547,000;    0,000; 0,00000
 323,06;  318,000;  318,000;    0,000; 0,00000
 323,08; -192,000; -192,000;    0,000; 0,00000
 323,10;  -85,000;  -85,000;    0,000; 0,00000
 323,12;  921,000;  921,000;    0,000; 0,00000
 323,14;  277,000;  277,000;    0,000; 0,00000
 323,15; -245,000; -245,000;    0,000; 0,00000
 323,17;  344,000;  344,000;    0,000; 0,00000
 323,19;   -8,000;   -8,000;    0,000; 0,00000
 323,21;  -98,000;  -98,000;    0,000; 0,00000
 323,23; -541,000; -541,000;    0,000; 0,00000
 323,25; -251,000; -251,000;    0,000; 0,00000
 323,27;  282,000;  282,000;    0,000; 0,00000
 323,29;  690,000;  690,000;    0,000; 0,00000
 323,30; -205,000; -205,000;    0,000; 0,00000
 323,32;  289,000;  289,000;    0,000; 0,00000
 323,34;  343,000;  343,000;    0,000; 0,00000
 323,36;  185,000;  185,000;    0,000; 0,00000
 323,38;   25,000;   25,000;    0,000; 0,00000
 323,40;  151,000;  151,000;    0,000; 0,00000
 323,42;  425,000;  425,000;    0,000; 0,00000
 323,43;   55,000;   55,000;    0,000; 0,00000
 323,45; -345,000; -345,000;    0,000; 0,00000
 323,47;   78,000;   78,000;    0,000; 0,00000
 323,49; -218,000; -218,000;    0,000; 0,00000
 323,51;  520,000;  520,000;    0,000; 0,00000
 323,53; -178,000; -178,000;    0,000; 0,00000
 323,55; -189,000; -189,000;    0,000; 0,00000
 323,56;   63,000;   63,000;    0,000; 0,00000
 323,58;   77,000;   77,000;    0,000; 0,00000
 323,60;  366,000;  366,000;    0,000; 0,00000
 323,62;  -79,000;  -79,000;    0,000; 0,00000
 323,64; 1206,000; 1206,000;    0,000; 0,00000
 323,66; 1035,000; 1035,000;    0,000; 0,00000
 323,68; -507,000; -507,000;    0,000; 0,00000
 323,69;  129,000;  129,000;    0,000; 0,00000
 323,71; 1121,000; 1121,000;    0,000; 0,00000
 323,73;  105,000;  105,000;    0,000; 0,00000
 323,75; -544,000; -544,000;    0,000; 0,00000
 323,77;   66,000;   66,000;    0,000; 0,00000
 323,79;   47,000;   47,000;    0,000; 0,00000
 323,81;  976,000;  976,000;    0,000; 0,00000
 323,82; -565,000; -565,000;    0,000; 0,00000
 323,84;  274,000;  274,000;    0,000; 0,00000
 323,86;  627,000;  627,000;    0,000; 0,00000
 323,88;  631,000;  631,000;    0,000; 0,00000
 323,90; -358,000; -358,000;    0,000; 0,00000
 323,92;  523,000;  523,000;    0,000; 0,00000
 323,94; -359,000; -359,000;    0,000; 0,00000
 323,95; -121,000; -121,000;    0,000; 0,00000
 323,97;   94,000;   94,000;    0,000; 0,00000
 323,99; -143,000; -143,000;    0,000; 0,00000
 324,01; -446,000; -446,000;    0,000; 0,00000
 324,03;  262,000;  262,000;    0,000; 0,00000
 324,05; -484,000; -484,000;    0,000; 0,00000
 324,06;  327,000;  327,000;    0,000; 0,00000
 324,08;  675,000;  675,000;    0,000; 0,00000
 324,10;  101,000;  101,000;    0,000; 0,00000
 324,12;   65,000;   65,000;    0,000; 0,00000
 324,14; -216,000; -216,000;    0,000; 0,00000
 324,16;   10,000;   10,000;    0,000; 0,00000
 324,18;  -89,000;  -89,000;    0,000; 0,00000
 324,19;  229,000;  229,000;    0,000; 0,00000
 324,21;    2,000;    2,000;    0,000; 0,00000
 324,23; -272,000; -272,000;    0,000; 0,00000
 324,25;   33,000;   33,000;    0,000; 0,00000
 324,27; -498,000; -498,000;    0,000; 0,00000
 324,29; -252,000; -252,000;    0,000; 0,00000
 324,31;  -27,000;  -27,000;    0,000; 0,00000
 324,32;  628,000;  628,000;    0,000; 0,00000
 324,34; -559,000; -559,000;    0,000; 0,00000
 324,36; -161,000; -161,000;    0,000; 0,00000
 324,38;  234,000;  234,000;    0,000; 0,00000
 324,40;  416,000;  416,000;    0,000; 0,00000
 324,42; -530,000; -530,000;    0,000; 0,00000
 324,43;  330,000;  330,000;    0,000; 0,00000
 324,45;   98,000;   98,000;    0,000; 0,00000
 324,47;  507,000;  507,000;    0,000; 0,00000
 324,49;  364,000;  364,000;    0,000; 0,00000
 324,51; -305,000; -305,000;    0,000; 0,00000
 324,53;  541,000;  541,000;    0,000; 0,00000
 324,55;  163,000;  163,000;    0,000; 0,00000
 324,56; -484,000; -484,000;    0,000; 0,00000
 324,58;  138,000;  138,000;    0,000; 0,00000
 324,60;  292,000;  292,000;    0,000; 0,00000
 324,62;  406,000;  406,000;    0,000; 0,00000
 324,64;  376,000;  376,000;    0,000; 0,00000
 324,66;  476,000;  476,000;    0,000; 0,00000
 324,67;   33,000;   33,000;    0,000; 0,00000
 324,69;  438,000;  438,000;    0,000; 0,00000
 324,71;  -29,000;  -29,000;    0,000; 0,00000
 324,73; -196,000; -196,000;    0,000; 0,00000
 324,75;  120,000;  120,000;    0,000; 0,00000
 324,77;  610,000;  610,000;    0,000; 0,00000
 324,79;   79,000;   79,000;    0,000; 0,00000
 324,80; -171,000; -171,000;    0,000; 0,00000
 324,82; -390,000; -390,000;    0,000; 0,00000
 324,84;  210,000;  210,000;    0,000; 0,00000
 324,86; -421,000; -421,000;    0,000; 0,00000
 324,88;   23,000;   23,000;    0,000; 0,00000
 324,90; -173,000; -173,000;    0,000; 0,00000
 324,91;  -37,000;  -37,000;    0,000; 0,00000
 324,93;  357,000;  357,000;    0,000; 0,00000
 324,95; -175,000; -175,000;    0,000; 0,00000
 324,97; -232,000; -232,000;    0,000; 0,00000
 324,99; -217,000; -217,000;    0,000; 0,00000
 325,01; -368,000; -368,000;    0,000; 0,00000
 325,02;  596,000;  596,000;    0,000; 0,00000
 325,04; -257,000; -257,000;    0,000; 0,00000
 325,06;  -66,000;  -66,000;    0,000; 0,00000
 325,08; -374,000; -374,000;    0,000; 0,00000
 325,10; -236,000; -236,000;    0,000; 0,00000
 325,12; -234,000; -234,000;    0,000; 0,00000
 325,13;  421,000;  421,000;    0,000; 0,00000
 325,15; -181,000; -181,000;    0,000; 0,00000
 325,17;  365,000;  365,000;    0,000; 0,00000
 325,19;  562,000;  562,000;    0,000; 0,00000
 325,21;  191,000;  191,000;    0,000; 0,00000
 325,23; -247,000; -247,000;    0,000; 0,00000
 325,25; -211,000; -211,000;    0,000; 0,00000
 325,26;  -51,000;  -51,000;    0,000; 0,00000
 325,28;  719,000;  719,000;    0,000; 0,00000
 325,30; -156,000; -156,000;    0,000; 0,00000
 325,32;  160,000;  160,000;    0,000; 0,00000
 325,34;  321,000;  321,000;    0,000; 0,00000
 325,36;  350,000;  350,000;    0,000; 0,00000
 325,37; -204,000; -204,000;    0,000; 0,00000
 325,39;  258,000;  258,000;    0,000; 0,00000
 325,41;  150,000;  150,000;    0,000; 0,00000
 325,43; -106,000; -106,000;    0,000; 0,00000
 325,45; -661,000; -661,000;    0,000; 0,00000
 325,47; -264,000; -264,000;    0,000; 0,00000
 325,48; -213,000; -213,000;    0,000; 0,00000
 325,50;  179,000;  179,000;    0,000; 0,00000
 325,52; -511,000; -511,000;    0,000; 0,00000
 325,54; -195,000; -195,000;    0,000; 0,00000
 325,56;  -90,000;  -90,000;    0,000; 0,00000
 325,58;  609,000;  609,000;    0,000; 0,00000
 325,59;  468,000;  468,000;    0,000; 0,00000
 325,61; -312,000; -312,000;    0,000; 0,00000
 325,63; -173,000; -173,000;    0,000; 0,00000
 325,65;  537,000;  537,000;    0,000; 0,00000
 325,67;  -99,000;  -99,000;    0,000; 0,00000
 325,69; -214,000; -214,000;    0,000; 0,00000
 325,70; -398,000; -398,000;    0,000; 0,00000
 325,72; 1137,000; 1137,000;    0,000; 0,00000
 325,74; -311,000; -311,000;    0,000; 0,00000
 325,76;  116,000;  116,000;    0,000; 0,00000
 325,78; -187,000; -187,000;    0,000; 0,00000
 325,79;  423,000;  423,000;    0,000; 0,00000
 325,81; -207,000; -207,000;    0,000; 0,00000
 325,83;  204,000;  204,000;    0,000; 0,00000
 325,85; -160,000; -160,000;    0,000; 0,00000
 325,87;  304,000;  304,000;    0,000; 0,00000
 325,89; -388,000; -388,000;    0,000; 0,00000
 325,90;  208,000;  208,000;    0,000; 0,00000
 325,92;  148,000;  148,000;    0,000; 0,00000
 325,94;  514,000;  514,000;    0,000; 0,00000
 325,96; -362,000; -362,000;    0,000; 0,00000
 325,98; -424,000; -424,000;    0,000; 0,00000
 326,00;   86,000;   86,000;    0,000; 0,00000
 326,01;  272,000;  272,000;    0,000; 0,00000
 326,03;  -15,000;  -15,000;    0,000; 0,00000
 326,05;  -73,000;  -73,000;    0,000; 0,00000
 326,07;  212,000;  212,000;    0,000; 0,00000
 326,09;  641,000;  641,000;    0,000; 0,00000
 326,11; -100,000; -100,000;    0,000; 0,00000
 326,12; -232,000; -232,000;    0,000; 0,00000
 326,14;  374,000;  374,000;    0,000; 0,00000
 326,16; 1168,000; 1168,000;    0,000; 0,00000
 326,18;  655,000;  655,000;    0,000; 0,00000
 326,20;  -22,000;  -22,000;    0,000; 0,00000
 326,21;  -56,000;  -56,000;    0,000; 0,00000
 326,23;   33,000;   33,000;    0,000; 0,00000
 326,25; -392,000; -392,000;    0,000; 0,00000
 326,27; -287,000; -287,000;    0,000; 0,00000
 326,29;  485,000;  485,000;    0,000; 0,00000
 326,31;  410,000;  410,000;    0,000; 0,00000
 326,32;  173,000;  173,000;    0,000; 0,00000
 326,34;   88,000;   88,000;    0,000; 0,00000
 326,36;  111,000;  111,000;    0,000; 0,00000
 326,38;  482,000;  482,000;    0,000; 0,00000
 326,40; -791,000; -791,000;    0,000; 0,00000
 326,42; -212,000; -212,000;    0,000; 0,00000
 326,43;  124,000;  124,000;    0,000; 0,00000
 326,45;  567,000;  567,000;    0,000; 0,00000
 326,47; -615,000; -615,000;    0,000; 0,00000
 326,49;  744,000;  744,000;    0,000; 0,00000
 326,51;  572,000;  572,000;    0,000; 0,00000
 326,52;  426,000;  426,000;    0,000; 0,00000
 326,54; -180,000; -180,000;    0,000; 0,00000
 326,56; -146,000; -146,000;    0,000; 0,00000
 326,58;  198,000;  198,000;    0,000; 0,00000
 326,60;  106,000;  106,000;    0,000; 0,00000
 326,62; -563,000; -563,000;    0,000; 0,00000
 326,63;  -50,000;  -50,000;    0,000; 0,00000
 326,65;  159,000;  159,000;    0,000; 0,00000
 326,67;  423,000;  423,000;    0,000; 0,00000
 326,69; -333,000; -333,000;    0,000; 0,00000
 326,71;  252,000;  252,000;    0,000; 0,00000
 326,72;  571,000;  571,000;    0,000; 0,00000
 326,74;  137,000;  137,000;    0,000; 0,00000
 326,76;  144,000;  144,000;    0,000; 0,00000
 326,78; -317,000; -317,000;    0,000; 0,00000
 326,80;   60,000;   60,000;    0,000; 0,00000
 326,82;  103,000;  103,000;    0,000; 0,00000
 326,83; -753,000; -753,000;    0,000; 0,00000
 326,85; -382,000; -382,000;    0,000; 0,00000
 326,87; -196,000; -196,000;    0,000; 0,00000
 326,89;  422,000;  422,000;    0,000; 0,00000
 326,91;  -36,000;  -36,000;    0,000; 0,00000
 326,92; -305,000; -305,000;    0,000; 0,00000
 326,94;   33,000;   33,000;    0,000; 0,00000
 326,96;  -48,000;  -48,000;    0,000; 0,00000
 326,98; -207,000; -207,000;    0,000; 0,00000
 327,00;  -44,000;  -44,000;    0,000; 0,00000
 327,01;   70,000;   70,000;    0,000; 0,00000
 327,03;  290,000;  290,000;    0,000; 0,00000
 327,05; -132,000; -132,000;    0,000; 0,00000
 327,07; -546,000; -546,000;    0,000; 0,00000
 327,09;  468,000;  468,000;    0,000; 0,00000
 327,11; -101,000; -101,000;    0,000; 0,00000
 327,12; -169,000; -169,000;    0,000; 0,00000
 327,14;   22,000;   22,000;    0,000; 0,00000
 327,16;  977,000;  977,000;    0,000; 0,00000
 327,18;  316,000;  316,000;    0,000; 0,00000
 327,20;  -38,000;  -38,000;    0,000; 0,00000
 327,21; -387,000; -387,000;    0,000; 0,00000
 327,23;  -45,000;  -45,000;    0,000; 0,00000
 327,25; 1276,000; 1276,000;    0,000; 0,00000
 327,27; -232,000; -232,000;    0,000; 0,00000
 327,29; -151,000; -151,000;    0,000; 0,00000
 327,30;  499,000;  499,000;    0,000; 0,00000
 327,32;   57,000;   57,000;    0,000; 0,00000
 327,34;  706,000;  706,000;    0,000; 0,00000
 327,36;  590,000;  590,000;    0,000; 0,00000
 327,38; -111,000; -111,000;    0,000; 0,00000
 327,39;  593,000;  593,000;    0,000; 0,00000
 327,41;  167,000;  167,000;    0,000; 0,00000
 327,43;  651,000;  651,000;    0,000; 0,00000
 327,45;  469,000;  469,000;    0,000; 0,00000
 327,47;  110,000;  110,000;    0,000; 0,00000
 327,49;  331,000;  331,000;    0,000; 0,00000
 327,50; -371,000; -371,000;    0,000; 0,00000
 327,52;   48,000;   48,000;    0,000; 0,00000
 327,54;  132,000;  132,000;    0,000; 0,00000
 327,56; -375,000; -375,000;    0,000; 0,00000
 327,58; -461,000; -461,000;    0,000; 0,00000
 327,59;  521,000;  521,000;    0,000; 0,00000
 327,61;  -16,000;  -16,000;    0,000; 0,00000
 327,63;  890,000;  890,000;    0,000; 0,00000
 327,65;  428,000;  428,000;    0,000; 0,00000
 327,67;  386,000;  386,000;    0,000; 0,00000
 327,68;  266,000;  266,000;    0,000; 0,00000
 327,70; -214,000; -214,000;    0,000; 0,00000
 327,72;  -97,000;  -97,000;    0,000; 0,00000
 327,74;  636,000;  636,000;    0,000; 0,00000
 327,76;  785,000;  785,000;    0,000; 0,00000
 327,77; -213,000; -213,000;    0,000; 0,00000
 327,79;  -83,000;  -83,000;    0,000; 0,00000
 327,81; -276,000; -276,000;    0,000; 0,00000
 327,83;  210,000;  210,000;    0,000; 0,00000
 327,85; -813,000; -813,000;    0,000; 0,00000
 327,86; -287,000; -287,000;    0,000; 0,00000
 327,88;  531,000;  531,000;    0,000; 0,00000
 327,90;   84,000;   84,000;    0,000; 0,00000
 327,92;  123,000;  123,000;    0,000; 0,00000
 327,94; -137,000; -137,000;    0,000; 0,00000
 327,95;   23,000;   23,000;    0,000; 0,00000
 327,97;  285,000;  285,000;    0,000; 0,00000
 327,99; -668,000; -668,000;    0,000; 0,00000
 328,01;  437,000;  437,000;    0,000; 0,00000
 328,03;  -58,000;  -58,000;    0,000; 0,00000
 328,04;  197,000;  197,000;    0,000; 0,00000
 328,06;  -53,000;  -53,000;    0,000; 0,00000
 328,08;  -58,000;  -58,000;    0,000; 0,00000
 328,10;  519,000;  519,000;    0,000; 0,00000
 328,12;  -33,000;  -33,000;    0,000; 0,00000
 328,13; -249,000; -249,000;    0,000; 0,00000
 328,15; -563,000; -563,000;    0,000; 0,00000
 328,17;   87,000;   87,000;    0,000; 0,00000
 328,19;   27,000;   27,000;    0,000; 0,00000
 328,21; -538,000; -538,000;    0,000; 0,00000
 328,22;  537,000;  537,000;    0,000; 0,00000
 328,24;   61,000;   61,000;    0,000; 0,00000
 328,26;  575,000;  575,000;    0,000; 0,00000
 328,28; -128,000; -128,000;    0,000; 0,00000
 328,30; -165,000; -165,000;    0,000; 0,00000
 328,31; -103,000; -103,000;    0,000; 0,00000
 328,33;  544,000;  544,000;    0,000; 0,00000
 328,35; -458,000; -458,000;    0,000; 0,00000
 328,37;  230,000;  230,000;    0,000; 0,00000
 328,39;  420,000;  420,000;    0,000; 0,00000
 328,40;   86,000;   86,000;    0,000; 0,00000
 328,42; -388,000; -388,000;    0,000; 0,00000
 328,44; -417,000; -417,000;    0,000; 0,00000
 328,46;  213,000;  213,000;    0,000; 0,00000
 328,47;  278,000;  278,000;    0,000; 0,00000
 328,49; -439,000; -439,000;    0,000; 0,00000
 328,51; -196,000; -196,000;    0,000; 0,00000
 328,53;  -68,000;  -68,000;    0,000; 0,00000
 328,55;   22,000;   22,000;    0,000; 0,00000
 328,56; -449,000; -449,000;    0,000; 0,00000
 328,58; -612,000; -612,000;    0,000; 0,00000
 328,60;  164,000;  164,000;    0,000; 0,00000
 328,62;  470,000;  470,000;    0,000; 0,00000
 328,64;  205,000;  205,000;    0,000; 0,00000
 328,65;   -9,000;   -9,000;    0,000; 0,00000
 328,67;  594,000;  594,000;    0,000; 0,00000
 328,69; -118,000; -118,000;    0,000; 0,00000
 328,71;  229,000;  229,000;    0,000; 0,00000
 328,73;  -22,000;  -22,000;    0,000; 0,00000
 328,74; -174,000; -174,000;    0,000; 0,00000
 328,76;   27,000;   27,000;    0,000; 0,00000
 328,78;   -3,000;   -3,000;    0,000; 0,00000
 328,80;  -14,000;  -14,000;    0,000; 0,00000
 328,81;  339,000;  339,000;    0,000; 0,00000
 328,83;  109,000;  109,000;    0,000; 0,00000
 328,85; -130,000; -130,000;    0,000; 0,00000
 328,87; -124,000; -124,000;    0,000; 0,00000
 328,89; -343,000; -343,000;    0,000; 0,00000
 328,90;  -31,000;  -31,000;    0,000; 0,00000
 328,92;  303,000;  303,000;    0,000; 0,00000
 328,94;  -21,000;  -21,000;    0,000; 0,00000
 328,96; -138,000; -138,000;    0,000; 0,00000
 328,98;  106,000;  106,000;    0,000; 0,00000
 328,99;  -97,000;  -97,000;    0,000; 0,00000
 329,01; -331,000; -331,000;    0,000; 0,00000
 329,03;  -56,000;  -56,000;    0,000; 0,00000
 329,05;  -63,000;  -63,000;    0,000; 0,00000
 329,06;  173,000;  173,000;    0,000; 0,00000
 329,08;  -73,000;  -73,000;    0,000; 0,00000
 329,10; -259,000; -259,000;    0,000; 0,00000
 329,12;  354,000;  354,000;    0,000; 0,00000
 329,14; -495,000; -495,000;    0,000; 0,00000
 329,15; -538,000; -538,000;    0,000; 0,00000
 329,17;  442,000;  442,000;    0,000; 0,00000
 329,19; -118,000; -118,000;    0,000; 0,00000
 329,21; -269,000; -269,000;    0,000; 0,00000
 329,23; 1116,000; 1116,000;    0,000; 0,00000
 329,24;    5,000;    5,000;    0,000; 0,00000
 329,26;  423,000;  423,000;    0,000; 0,00000
 329,28;  139,000;  139,000;    0,000; 0,00000
 329,30; -375,000; -375,000;    0,000; 0,00000
 329,31;  -74,000;  -74,000;    0,000; 0,00000
 329,33;  134,000;  134,000;    0,000; 0,00000
 329,35; -292,000; -292,000;    0,000; 0,00000
 329,37;  -47,000;  -47,000;    0,000; 0,00000
 329,39;  379,000;  379,000;    0,000; 0,00000
 329,40;  313,000;  313,000;    0,000; 0,00000
 329,42;  119,000;  119,000;    0,000; 0,00000
 329,44; -262,000; -262,000;    0,000; 0,00000
 329,46; -101,000; -101,000;    0,000; 0,00000
 329,47;  649,000;  649,000;    0,000; 0,00000
 329,49;  159,000;  159,000;    0,000; 0,00000
 329,51; -269,000; -269,000;    0,000; 0,00000
 329,53; -203,000; -203,000;    0,000; 0,00000
 329,55;  171,000;  171,000;    0,000; 0,00000
 329,56; -583,000; -583,000;    0,000; 0,00000
 329,58; -461,000; -461,000;    0,000; 0,00000
 329,60;  340,000;  340,000;    0,000; 0,00000
 329,62;  748,000;  748,000;    0,000; 0,00000
 329,63; -458,000; -458,000;    0,000; 0,00000
 329,65;  -80,000;  -80,000;    0,000; 0,00000
 329,67;   70,000;   70,000;    0,000; 0,00000
 329,69;  152,000;  152,000;    0,000; 0,00000
 329,71; -422,000; -422,000;    0,000; 0,00000
 329,72; -355,000; -355,000;    0,000; 0,00000
 329,74; -166,000; -166,000;    0,000; 0,00000
 329,76;  173,000;  173,000;    0,000; 0,00000
 329,78; -464,000; -464,000;    0,000; 0,00000
 329,79;  103,000;  103,000;    0,000; 0,00000
 329,81; 1013,000; 1013,000;    0,000; 0,00000
 329,83;   61,000;   61,000;    0,000; 0,00000
 329,85; -115,000; -115,000;    0,000; 0,00000
 329,87;  130,000;  130,000;    0,000; 0,00000
 329,88;   -4,000;   -4,000;    0,000; 0,00000
 329,90;  732,000;  732,000;    0,000; 0,00000
 329,92; -289,000; -289,000;    0,000; 0,00000
 329,94; -344,000; -344,000;    0,000; 0,00000
 329,95; -263,000; -263,000;    0,000; 0,00000
 329,97;   98,000;   98,000;    0,000; 0,00000
 329,99;  184,000;  184,000;    0,000; 0,00000
 330,01; -199,000; -199,000;    0,000; 0,00000
 330,02; -178,000; -178,000;    0,000; 0,00000
 330,04; -114,000; -114,000;    0,000; 0,00000
 330,06; -245,000; -245,000;    0,000; 0,00000
 330,08;  -44,000;  -44,000;    0,000; 0,00000
 330,10;   51,000;   51,000;    0,000; 0,00000
 330,11;  305,000;  305,000;    0,000; 0,00000
 330,13; -229,000; -229,000;    0,000; 0,00000
 330,15;   85,000;   85,000;    0,000; 0,00000
 330,17; -314,000; -314,000;    0,000; 0,00000
 330,18;  199,000;  199,000;    0,000; 0,00000
 330,20; -617,000; -617,000;    0,000; 0,00000
 330,22;  -25,000;  -25,000;    0,000; 0,00000
 330,24;  -15,000;  -15,000;    0,000; 0,00000
 330,25;  203,000;  203,000;    0,000; 0,00000
 330,27; -594,000; -594,000;    0,000; 0,00000
 330,29; -395,000; -395,000;    0,000; 0,00000
 330,31; -184,000; -184,000;    0,000; 0,00000
 330,33;  846,000;  846,000;    0,000; 0,00000
 330,34; -720,000; -720,000;    0,000; 0,00000
 330,36; -483,000; -483,000;    0,000; 0,00000
 330,38;  657,000;  657,000;    0,000; 0,00000
 330,40;  852,000;  852,000;    0,000; 0,00000
 330,41; -379,000; -379,000;    0,000; 0,00000
 330,43; -244,000; -244,000;    0,000; 0,00000
 330,45; -163,000; -163,000;    0,000; 0,00000
 330,47;  200,000;  200,000;    0,000; 0,00000
 330,48; -468,000; -468,000;    0,000; 0,00000
 330,50;  490,000;  490,000;    0,000; 0,00000
 330,52; -142,000; -142,000;    0,000; 0,00000
 330,54;  114,000;  114,000;    0,000; 0,00000
 330,56;   16,000;   16,000;    0,000; 0,00000
 330,57;  -64,000;  -64,000;    0,000; 0,00000
 330,59;  177,000;  177,000;    0,000; 0,00000
 330,61;  215,000;  215,000;    0,000; 0,00000
 330,63; -287,000; -287,000;    0,000; 0,00000
 330,64; -272,000; -272,000;    0,000; 0,00000
 330,66;  138,000;  138,000;    0,000; 0,00000
 330,68;  -20,000;  -20,000;    0,000; 0,00000
 330,70; -572,000; -572,000;    0,000; 0,00000
 330,71; -194,000; -194,000;    0,000; 0,00000
 330,73; -170,000; -170,000;    0,000; 0,00000
 330,75;   39,000;   39,000;    0,000; 0,00000
 330,77; -250,000; -250,000;    0,000; 0,00000
 330,78; -522,000; -522,000;    0,000; 0,00000
 330,80; -377,000; -377,000;    0,000; 0,00000
 330,82;  573,000;  573,000;    0,000; 0,00000
 330,84; -412,000; -412,000;    0,000; 0,00000
 330,85;  201,000;  201,000;    0,000; 0,00000
 330,87;  -19,000;  -19,000;    0,000; 0,00000
 330,89; -125,000; -125,000;    0,000; 0,00000
 330,91; -405,000; -405,000;    0,000; 0,00000
 330,92;  224,000;  224,000;    0,000; 0,00000
 330,94; -373,000; -373,000;    0,000; 0,00000
 330,96;   20,000;   20,000;    0,000; 0,00000
 330,98; -230,000; -230,000;    0,000; 0,00000
 331,00;  -19,000;  -19,000;    0,000; 0,00000
 331,01;  120,000;  120,000;    0,000; 0,00000
 331,03;  273,000;  273,000;    0,000; 0,00000
 331,05; -498,000; -498,000;    0,000; 0,00000
 331,07;  465,000;  465,000;    0,000; 0,00000
 331,08;  -67,000;  -67,000;    0,000; 0,00000
 331,10; -126,000; -126,000;    0,000; 0,00000
 331,12; -165,000; -165,000;    0,000; 0,00000
 331,14; -259,000; -259,000;    0,000; 0,00000
 331,15;  465,000;  465,000;    0,000; 0,00000
 331,17;  534,000;  534,000;    0,000; 0,00000
 331,19; -645,000; -645,000;    0,000; 0,00000
 331,21; -135,000; -135,000;    0,000; 0,00000
 331,22; -293,000; -293,000;    0,000; 0,00000
 331,24;  286,000;  286,000;    0,000; 0,00000
 331,26; -333,000; -333,000;    0,000; 0,00000
 331,28; -431,000; -431,000;    0,000; 0,00000
 331,29;  -67,000;  -67,000;    0,000; 0,00000
 331,31;  433,000;  433,000;    0,000; 0,00000
 331,33; -157,000; -157,000;    0,000; 0,00000
 331,35; -533,000; -533,000;    0,000; 0,00000
 331,36; -453,000; -453,000;    0,000; 0,00000
 331,38;  230,000;  230,000;    0,000; 0,00000
 331,40; -407,000; -407,000;    0,000; 0,00000
 331,42; -599,000; -599,000;    0,000; 0,00000
 331,43;  132,000;  132,000;    0,000; 0,00000
 331,45;  103,000;  103,000;    0,000; 0,00000
 331,47; -677,000; -677,000;    0,000; 0,00000
 331,49; -246,000; -246,000;    0,000; 0,00000
 331,50; -203,000; -203,000;    0,000; 0,00000
 331,52;  520,000;  520,000;    0,000; 0,00000
 331,54; -534,000; -534,000;    0,000; 0,00000
 331,56; -411,000; -411,000;    0,000; 0,00000
 331,57; -211,000; -211,000;    0,000; 0,00000
 331,59;  244,000;  244,000;    0,000; 0,00000
 331,61; -272,000; -272,000;    0,000; 0,00000
 331,63; -335,000; -335,000;    0,000; 0,00000
 331,64;   81,000;   81,000;    0,000; 0,00000
 331,66;  270,000;  270,000;    0,000; 0,00000
 331,68;   94,000;   94,000;    0,000; 0,00000
 331,70; -162,000; -162,000;    0,000; 0,00000
 331,71;  185,000;  185,000;    0,000; 0,00000
 331,73; -118,000; -118,000;    0,000; 0,00000
 331,75; -479,000; -479,000;    0,000; 0,00000
 331,77; -163,000; -163,000;    0,000; 0,00000
 331,78;  -67,000;  -67,000;    0,000; 0,00000
 331,80;  298,000;  298,000;    0,000; 0,00000
 331,82;  135,000;  135,000;    0,000; 0,00000
 331,84; -354,000; -354,000;    0,000; 0,00000
 331,85; -223,000; -223,000;    0,000; 0,00000
 331,87;   32,000;   32,000;    0,000; 0,00000
 331,89;  105,000;  105,000;    0,000; 0,00000
 331,91; -217,000; -217,000;    0,000; 0,00000
 331,92;  113,000;  113,000;    0,000; 0,00000
 331,94;  -24,000;  -24,000;    0,000; 0,00000
 331,96; -536,000; -536,000;    0,000; 0,00000
 331,98; -144,000; -144,000;    0,000; 0,00000
 331,99; -114,000; -114,000;    0,000; 0,00000
 332,01;  456,000;  456,000;    0,000; 0,00000
 332,03; 1176,000; 1176,000;    0,000; 0,00000
 332,04;   72,000;   72,000;    0,000; 0,00000
 332,06; -228,000; -228,000;    0,000; 0,00000
 332,08;   31,000;   31,000;    0,000; 0,00000
 332,10; -362,000; -362,000;    0,000; 0,00000
 332,11; -234,000; -234,000;    0,000; 0,00000
 332,13;  222,000;  222,000;    0,000; 0,00000
 332,15;   72,000;   72,000;    0,000; 0,00000
 332,17; -458,000; -458,000;    0,000; 0,00000
 332,18;  307,000;  307,000;    0,000; 0,00000
 332,20;   25,000;   25,000;    0,000; 0,00000
 332,22;  623,000;  623,000;    0,000; 0,00000
 332,24; -194,000; -194,000;    0,000; 0,00000
 332,25; -561,000; -561,000;    0,000; 0,00000
 332,27;  390,000;  390,000;    0,000; 0,00000
 332,29; -294,000; -294,000;    0,000; 0,00000
 332,31;   56,000;   56,000;    0,000; 0,00000
 332,32;  721,000;  721,000;    0,000; 0,00000
 332,34;   84,000;   84,000;    0,000; 0,00000
 332,36;  -31,000;  -31,000;    0,000; 0,00000
 332,38; -149,000; -149,000;    0,000; 0,00000
 332,39; -278,000; -278,000;    0,000; 0,00000
 332,41;  889,000;  889,000;    0,000; 0,00000
 332,43;  816,000;  816,000;    0,000; 0,00000
 332,45; -635,000; -635,000;    0,000; 0,00000
 332,46; -291,000; -291,000;    0,000; 0,00000
 332,48;  -89,000;  -89,000;    0,000; 0,00000
 332,50; -188,000; -188,000;    0,000; 0,00000
 332,51; -502,000; -502,000;    0,000; 0,00000
 332,53; -500,000; -500,000;    0,000; 0,00000
 332,55; -311,000; -311,000;    0,000; 0,00000
 332,57; -221,000; -221,000;    0,000; 0,00000
 332,58; -496,000; -496,000;    0,000; 0,00000
 332,60; -161,000; -161,000;    0,000; 0,00000
 332,62; -230,000; -230,000;    0,000; 0,00000
 332,64;  630,000;  630,000;    0,000; 0,00000
 332,65; -306,000; -306,000;    0,000; 0,00000
 332,67;  434,000;  434,000;    0,000; 0,00000
 332,69;  544,000;  544,000;    0,000; 0,00000
 332,71;  481,000;  481,000;    0,000; 0,00000
 332,72; -821,000; -821,000;    0,000; 0,00000
 332,74; -501,000; -501,000;    0,000; 0,00000
 332,76; -183,000; -183,000;    0,000; 0,00000
 332,77;  552,000;  552,000;    0,000; 0,00000
 332,79; -721,000; -721,000;    0,000; 0,00000
 332,81; -433,000; -433,000;    0,000; 0,00000
 332,83; -422,000; -422,000;    0,000; 0,00000
 332,84;  144,000;  144,000;    0,000; 0,00000
 332,86; -102,000; -102,000;    0,000; 0,00000
 332,88; -363,000; -363,000;    0,000; 0,00000
 332,90; -216,000; -216,000;    0,000; 0,00000
 332,91; 1011,000; 1011,000;    0,000; 0,00000
 332,93; -576,000; -576,000;    0,000; 0,00000
 332,95;  127,000;  127,000;    0,000; 0,00000
 332,96;   29,000;   29,000;    0,000; 0,00000
 332,98;  442,000;  442,000;    0,000; 0,00000
 333,00;  174,000;  174,000;    0,000; 0,00000
 333,02; -224,000; -224,000;    0,000; 0,00000
 333,03;   46,000;   46,000;    0,000; 0,00000
 333,05;  410,000;  410,000;    0,000; 0,00000
 333,07; -517,000; -517,000;    0,000; 0,00000
 333,09;  133,000;  133,000;    0,000; 0,00000
 333,10;   12,000;   12,000;    0,000; 0,00000
 333,12;  405,000;  405,000;    0,000; 0,00000
 333,14; -893,000; -893,000;    0,000; 0,00000
 333,15; -357,000; -357,000;    0,000; 0,00000
 333,17; -109,000; -109,000;    0,000; 0,00000
 333,19;   34,000;   34,000;    0,000; 0,00000
 333,21; -237,000; -237,000;    0,000; 0,00000
 333,22; -341,000; -341,000;    0,000; 0,00000
 333,24;  -18,000;  -18,000;    0,000; 0,00000
 333,26;  641,000;  641,000;    0,000; 0,00000
 333,28;   57,000;   57,000;    0,000; 0,00000
 333,29; -557,000; -557,000;    0,000; 0,00000
 333,31;   42,000;   42,000;    0,000; 0,00000
 333,33; -115,000; -115,000;    0,000; 0,00000
 333,34; -139,000; -139,000;    0,000; 0,00000
 333,36;  240,000;  240,000;    0,000; 0,00000
 333,38; -286,000; -286,000;    0,000; 0,00000
 333,40;  105,000;  105,000;    0,000; 0,00000
 333,41; -703,000; -703,000;    0,000; 0,00000
 333,43; -442,000; -442,000;    0,000; 0,00000
 333,45;  -90,000;  -90,000;    0,000; 0,00000
 333,47;  -43,000;  -43,000;    0,000; 0,00000
 333,48;  -73,000;  -73,000;    0,000; 0,00000
 333,50;  -98,000;  -98,000;    0,000; 0,00000
 333,52; -211,000; -211,000;    0,000; 0,00000
 333,53;  721,000;  721,000;    0,000; 0,00000
 333,55;  353,000;  353,000;    0,000; 0,00000
 333,57; -211,000; -211,000;    0,000; 0,00000
 333,59; -181,000; -181,000;    0,000; 0,00000
 333,60;  356,000;  356,000;    0,000; 0,00000
 333,62; -371,000; -371,000;    0,000; 0,00000
 333,64; -138,000; -138,000;    0,000; 0,00000
 333,65;  -87,000;  -87,000;    0,000; 0,00000
 333,67;  219,000;  219,000;    0,000; 0,00000
 333,69;  368,000;  368,000;    0,000; 0,00000
 333,71; -336,000; -336,000;    0,000; 0,00000
 333,72; -547,000; -547,000;    0,000; 0,00000
 333,74;  184,000;  184,000;    0,000; 0,00000
 333,76; -548,000; -548,000;    0,000; 0,00000
 333,77; -468,000; -468,000;    0,000; 0,00000
 333,79; -208,000; -208,000;    0,000; 0,00000
 333,81;  722,000;  722,000;    0,000; 0,00000
 333,83;  -60,000;  -60,000;    0,000; 0,00000
 333,84;   80,000;   80,000;    0,000; 0,00000
 333,86; -296,000; -296,000;    0,000; 0,00000
 333,88;   50,000;   50,000;    0,000; 0,00000
 333,89; -469,000; -469,000;    0,000; 0,00000
 333,91; -538,000; -538,000;    0,000; 0,00000
 333,93;  362,000;  362,000;    0,000; 0,00000
 333,95;  916,000;  916,000;    0,000; 0,00000
 333,96; -459,000; -459,000;    0,000; 0,00000
 333,98; -155,000; -155,000;    0,000; 0,00000
 334,00; -181,000; -181,000;    0,000; 0,00000
 334,01;  745,000;  745,000;    0,000; 0,00000
 334,03;   60,000;   60,000;    0,000; 0,00000
 334,05; -154,000; -154,000;    0,000; 0,00000
 334,07;  103,000;  103,000;    0,000; 0,00000
 334,08;  181,000;  181,000;    0,000; 0,00000
 334,10; -595,000; -595,000;    0,000; 0,00000
 334,12; -138,000; -138,000;    0,000; 0,00000
 334,13;  -59,000;  -59,000;    0,000; 0,00000
 334,15;  101,000;  101,000;    0,000; 0,00000
 334,17; -175,000; -175,000;    0,000; 0,00000
 334,19;   80,000;   80,000;    0,000; 0,00000
 334,20;  525,000;  525,000;    0,000; 0,00000
 334,22;   26,000;   26,000;    0,000; 0,00000
 334,24; -249,000; -249,000;    0,000; 0,00000
 334,25; -280,000; -280,000;    0,000; 0,00000
 334,27;   42,000;   42,000;    0,000; 0,00000
 334,29;  416,000;  416,000;    0,000; 0,00000
 334,31; -363,000; -363,000;    0,000; 0,00000
 334,32; -429,000; -429,000;    0,000; 0,00000
 334,34; -210,000; -210,000;    0,000; 0,00000
 334,36;  689,000;  689,000;    0,000; 0,00000
 334,37;  242,000;  242,000;    0,000; 0,00000
 334,39;  508,000;  508,000;    0,000; 0,00000
 334,41;  -62,000;  -62,000;    0,000; 0,00000
 334,43;  293,000;  293,000;    0,000; 0,00000
 334,44;  113,000;  113,000;    0,000; 0,00000
 334,46;  235,000;  235,000;    0,000; 0,00000
 334,48;  402,000;  402,000;    0,000; 0,00000
 334,49;  317,000;  317,000;    0,000; 0,00000
 334,51; -689,000; -689,000;    0,000; 0,00000
 334,53; -744,000; -744,000;    0,000; 0,00000
 334,54;  110,000;  110,000;    0,000; 0,00000
 334,56;   13,000;   13,000;    0,000; 0,00000
 334,58; -517,000; -517,000;    0,000; 0,00000
 334,60; -453,000; -453,000;    0,000; 0,00000
 334,61; -354,000; -354,000;    0,000; 0,00000
 334,63;  313,000;  313,000;    0,000; 0,00000
 334,65;  161,000;  161,000;    0,000; 0,00000
 334,66;   27,000;   27,000;    0,000; 0,00000
 334,68; -216,000; -216,000;    0,000; 0,00000
 334,70;  283,000;  283,000;    0,000; 0,00000
 334,72;  235,000;  235,000;    0,000; 0,00000
 334,73; -336,000; -336,000;    0,000; 0,00000
 334,75;  286,000;  286,000;    0,000; 0,00000
 334,77;  744,000;  744,000;    0,000; 0,00000
 334,78; -720,000; -720,000;    0,000; 0,00000
 334,80; -199,000; -199,000;    0,000; 0,00000
 334,82;  328,000;  328,000;    0,000; 0,00000
 334,83;  639,000;  639,000;    0,000; 0,00000
 334,85; -640,000; -640,000;    0,000; 0,00000
 334,87; -524,000; -524,000;    0,000; 0,00000
 334,89;  -21,000;  -21,000;    0,000; 0,00000
 334,90;  264,000;  264,000;    0,000; 0,00000
 334,92; -472,000; -472,000;    0,000; 0,00000
 334,94; -402,000; -402,000;    0,000; 0,00000
 334,95;   30,000;   30,000;    0,000; 0,00000
 334,97;  131,000;  131,000;    0,000; 0,00000
 334,99; -260,000; -260,000;    0,000; 0,00000
 335,00; -346,000; -346,000;    0,000; 0,00000
 335,02;    1,000;    1,000;    0,000; 0,00000
 335,04;  307,000;  307,000;    0,000; 0,00000
 335,06; -886,000; -886,000;    0,000; 0,00000
 335,07; -602,000; -602,000;    0,000; 0,00000
 335,09;  359,000;  359,000;    0,000; 0,00000
 335,11;  698,000;  698,000;    0,000; 0,00000
 335,12; -122,000; -122,000;    0,000; 0,00000
 335,14; -273,000; -273,000;    0,000; 0,00000
 335,16;   25,000;   25,000;    0,000; 0,00000
 335,17; -383,000; -383,000;    0,000; 0,00000
 335,19;  373,000;  373,000;    0,000; 0,00000
 335,21; -123,000; -123,000;    0,000; 0,00000
 335,23;  218,000;  218,000;    0,000; 0,00000
 335,24; -154,000; -154,000;    0,000; 0,00000
 335,26; -713,000; -713,000;    0,000; 0,00000
 335,28; -558,000; -558,000;    0,000; 0,00000
 335,29; -223,000; -223,000;    0,000; 0,00000
 335,31;  -39,000;  -39,000;    0,000; 0,00000
 335,33; -445,000; -445,000;    0,000; 0,00000
 335,34;    9,000;    9,000;    0,000; 0,00000
 335,36;  255,000;  255,000;    0,000; 0,00000
 335,38;  318,000;  318,000;    0,000; 0,00000
 335,39;  349,000;  349,000;    0,000; 0,00000
 335,41; -559,000; -559,000;    0,000; 0,00000
 335,43; -379,000; -379,000;    0,000; 0,00000
 335,45; -165,000; -165,000;    0,000; 0,00000
 335,46; -245,000; -245,000;    0,000; 0,00000
 335,48;  610,000;  610,000;    0,000; 0,00000
 335,50;   73,000;   73,000;    0,000; 0,00000
 335,51;   -8,000;   -8,000;    0,000; 0,00000
 335,53; -714,000; -714,000;    0,000; 0,00000
 335,55; -295,000; -295,000;    0,000; 0,00000
 335,56;   29,000;   29,000;    0,000; 0,00000
 335,58;  100,000;  100,000;    0,000; 0,00000
 335,60; -360,000; -360,000;    0,000; 0,00000
 335,61; -457,000; -457,000;    0,000; 0,00000
 335,63;  445,000;  445,000;    0,000; 0,00000
 335,65;  158,000;  158,000;    0,000; 0,00000
 335,67; -566,000; -566,000;    0,000; 0,00000
 335,68;  -90,000;  -90,000;    0,000; 0,00000
 335,70;  672,000;  672,000;    0,000; 0,00000
 335,72;  336,000;  336,000;    0,000; 0,00000
 335,73;  141,000;  141,000;    0,000; 0,00000
 335,75; -123,000; -123,000;    0,000; 0,00000
 335,77;  119,000;  119,000;    0,000; 0,00000
 335,78;  814,000;  814,000;    0,000; 0,00000
 335,80; -786,000; -786,000;    0,000; 0,00000
 335,82; -426,000; -426,000;    0,000; 0,00000
 335,83;  285,000;  285,000;    0,000; 0,00000
 335,85;  407,000;  407,000;    0,000; 0,00000
 335,87; -511,000; -511,000;    0,000; 0,00000
 335,88; -405,000; -405,000;    0,000; 0,00000
 335,90;  569,000;  569,000;    0,000; 0,00000
 335,92;  148,000;  148,000;    0,000; 0,00000
 335,93; -452,000; -452,000;    0,000; 0,00000
 335,95; -412,000; -412,000;    0,000; 0,00000
 335,97;   82,000;   82,000;    0,000; 0,00000
 335,99;  334,000;  334,000;    0,000; 0,00000
 336,00; -676,000; -676,000;    0,000; 0,00000
 336,02; -460,000; -460,000;    0,000; 0,00000
 336,04;  170,000;  170,000;    0,000; 0,00000
 336,05;  343,000;  343,000;    0,000; 0,00000
 336,07; -785,000; -785,000;    0,000; 0,00000
 336,09; -664,000; -664,000;    0,000; 0,00000
 336,10;  134,000;  134,000;    0,000; 0,00000
 336,12;  243,000;  243,000;    0,000; 0,00000
 336,14; -994,000; -994,000;    0,000; 0,00000
 336,15; -585,000; -585,000;    0,000; 0,00000
 336,17; -380,000; -380,000;    0,000; 0,00000
 336,19;  449,000;  449,000;    0,000; 0,00000
 336,20; -438,000; -438,000;    0,000; 0,00000
 336,22; -241,000; -241,000;    0,000; 0,00000
 336,24;  490,000;  490,000;    0,000; 0,00000
 336,25;  -34,000;  -34,000;    0,000; 0,00000
 336,27; -603,000; -603,000;    0,000; 0,00000
 336,29; -175,000; -175,000;    0,000; 0,00000
 336,30;  488,000;  488,000;    0,000; 0,00000
 336,32;  217,000;  217,000;    0,000; 0,00000
 336,34; -701,000; -701,000;    0,000; 0,00000
 336,36; -336,000; -336,000;    0,000; 0,00000
 336,37; -295,000; -295,000;    0,000; 0,00000
 336,39;   52,000;   52,000;    0,000; 0,00000
 336,41; -455,000; -455,000;    0,000; 0,00000
 336,42; -487,000; -487,000;    0,000; 0,00000
 336,44; -178,000; -178,000;    0,000; 0,00000
 336,46;  848,000;  848,000;    0,000; 0,00000
 336,47; -678,000; -678,000;    0,000; 0,00000
 336,49; -272,000; -272,000;    0,000; 0,00000
 336,51;  123,000;  123,000;    0,000; 0,00000
 336,52;  231,000;  231,000;    0,000; 0,00000
 336,54; -236,000; -236,000;    0,000; 0,00000
 336,56; -643,000; -643,000;    0,000; 0,00000
 336,57; -338,000; -338,000;    0,000; 0,00000
 336,59; -183,000; -183,000;    0,000; 0,00000
 336,61;  620,000;  620,000;    0,000; 0,00000
 336,62; -290,000; -290,000;    0,000; 0,00000
 336,64; -115,000; -115,000;    0,000; 0,00000
 336,66;  389,000;  389,000;    0,000; 0,00000
 336,67; -109,000; -109,000;    0,000; 0,00000
 336,69;    8,000;    8,000;    0,000; 0,00000
 336,71;   29,000;   29,000;    0,000; 0,00000
 336,72; -138,000; -138,000;    0,000; 0,00000
 336,74; -581,000; -581,000;    0,000; 0,00000
 336,76;  -41,000;  -41,000;    0,000; 0,00000
 336,77;    8,000;    8,000;    0,000; 0,00000
 336,79;  268,000;  268,000;    0,000; 0,00000
 336,81; -437,000; -437,000;    0,000; 0,00000
 336,82; -271,000; -271,000;    0,000; 0,00000
 336,84;   -4,000;   -4,000;    0,000; 0,00000
 336,86;  360,000;  360,000;    0,000; 0,00000
 336,87; -850,000; -850,000;    0,000; 0,00000
 336,89; -525,000; -525,000;    0,000; 0,00000
 336,91; -287,000; -287,000;    0,000; 0,00000
 336,92;  266,000;  266,000;    0,000; 0,00000
 336,94; -814,000; -814,000;    0,000; 0,00000
 336,96; -553,000; -553,000;    0,000; 0,00000
 336,97;  246,000;  246,000;    0,000; 0,00000
 336,99;   62,000;   62,000;    0,000; 0,00000
 337,01;  -61,000;  -61,000;    0,000; 0,00000
 337,02; -617,000; -617,000;    0,000; 0,00000
 337,04;  -92,000;  -92,000;    0,000; 0,00000
 337,06;  465,000;  465,000;    0,000; 0,00000
 337,07;  223,000;  223,000;    0,000; 0,00000
 337,09; -479,000; -479,000;    0,000; 0,00000
 337,11; -462,000; -462,000;    0,000; 0,00000
 337,12;  910,000;  910,000;    0,000; 0,00000
 337,14; -453,000; -453,000;    0,000; 0,00000
 337,16; -669,000; -669,000;    0,000; 0,00000
 337,17; -145,000; -145,000;    0,000; 0,00000
 337,19;  435,000;  435,000;    0,000; 0,00000
 337,21; -271,000; -271,000;    0,000; 0,00000
 337,22; -309,000; -309,000;    0,000; 0,00000
 337,24;  220,000;  220,000;    0,000; 0,00000
 337,26;  321,000;  321,000;    0,000; 0,00000
 337,27; -728,000; -728,000;    0,000; 0,00000
 337,29; -306,000; -306,000;    0,000; 0,00000
 337,31; -318,000; -318,000;    0,000; 0,00000
 337,32;  270,000;  270,000;    0,000; 0,00000
 337,34; -603,000; -603,000;    0,000; 0,00000
 337,36; -590,000; -590,000;    0,000; 0,00000
 337,37;  -89,000;  -89,000;    0,000; 0,00000
 337,39;  763,000;  763,000;    0,000; 0,00000
 337,41; -261,000; -261,000;    0,000; 0,00000
 337,42; -342,000; -342,000;    0,000; 0,00000
 337,44; -277,000; -277,000;    0,000; 0,00000
 337,46;  103,000;  103,000;    0,000; 0,00000
 337,47; -784,000; -784,000;    0,000; 0,00000
 337,49; -499,000; -499,000;    0,000; 0,00000
 337,51;  553,000;  553,000;    0,000; 0,00000
 337,52;   -9,000;   -9,000;    0,000; 0,00000
 337,54; -120,000; -120,000;    0,000; 0,00000
 337,56; -492,000; -492,000;    0,000; 0,00000
 337,57;  133,000;  133,000;    0,000; 0,00000
 337,59;  336,000;  336,000;    0,000; 0,00000
 337,61; -804,000; -804,000;    0,000; 0,00000
 337,62; -232,000; -232,000;    0,000; 0,00000
 337,64; -232,000; -232,000;    0,000; 0,00000
 337,66;  -16,000;  -16,000;    0,000; 0,00000
 337,67; -572,000; -572,000;    0,000; 0,00000
 337,69; -696,000; -696,000;    0,000; 0,00000
 337,71;   18,000;   18,000;    0,000; 0,00000
 337,72; -110,000; -110,000;    0,000; 0,00000
 337,74; -492,000; -492,000;    0,000; 0,00000
 337,76; -574,000; -574,000;    0,000; 0,00000
 337,77; -280,000; -280,000;    0,000; 0,00000
 337,79; -259,000; -259,000;    0,000; 0,00000
 337,81; -613,000; -613,000;    0,000; 0,00000
 337,82;  -84,000;  -84,000;    0,000; 0,00000
 337,84;  139,000;  139,000;    0,000; 0,00000
 337,86;  898,000;  898,000;    0,000; 0,00000
 337,87;  -95,000;  -95,000;    0,000; 0,00000
 337,89; -491,000; -491,000;    0,000; 0,00000
 337,91;  378,000;  378,000;    0,000; 0,00000
 337,92;  461,000;  461,000;    0,000; 0,00000
 337,94; -591,000; -591,000;    0,000; 0,00000
 337,95; -558,000; -558,000;    0,000; 0,00000
 337,97;  -83,000;  -83,000;    0,000; 0,00000
 337,99;  825,000;  825,000;    0,000; 0,00000
 338,00; -675,000; -675,000;    0,000; 0,00000
 338,02; -162,000; -162,000;    0,000; 0,00000
 338,04;  877,000;  877,000;    0,000; 0,00000
 338,05;   10,000;   10,000;    0,000; 0,00000
 338,07; -725,000; -725,000;    0,000; 0,00000
 338,09; -192,000; -192,000;    0,000; 0,00000
 338,10;  425,000;  425,000;    0,000; 0,00000
 338,12;  274,000;  274,000;    0,000; 0,00000
 338,14; -601,000; -601,000;    0,000; 0,00000
 338,15;  -97,000;  -97,000;    0,000; 0,00000
 338,17;  416,000;  416,000;    0,000; 0,00000
 338,19;  646,000;  646,000;    0,000; 0,00000
 338,20; -983,000; -983,000;    0,000; 0,00000
 338,22; -387,000; -387,000;    0,000; 0,00000
 338,24;  276,000;  276,000;    0,000; 0,00000
 338,25; 1130,000; 1130,000;    0,000; 0,00000
 338,27; -411,000; -411,000;    0,000; 0,00000
 338,29; -384,000; -384,000;    0,000; 0,00000
 338,30; -265,000; -265,000;    0,000; 0,00000
 338,32;  142,000;  142,000;    0,000; 0,00000
 338,33; -273,000; -273,000;    0,000; 0,00000
 338,35;  320,000;  320,000;    0,000; 0,00000
 338,37;   82,000;   82,000;    0,000; 0,00000
 338,38; -113,000; -113,000;    0,000; 0,00000
 338,40; -581,000; -581,000;    0,000; 0,00000
 338,42;  743,000;  743,000;    0,000; 0,00000
 338,43; -228,000; -228,000;    0,000; 0,00000
 338,45; -403,000; -403,000;    0,000; 0,00000
 338,47; -422,000; -422,000;    0,000; 0,00000
 338,48;  121,000;  121,000;    0,000; 0,00000
 338,50;  306,000;  306,000;    0,000; 0,00000
 338,52;  170,000;  170,000;    0,000; 0,00000
 338,53; -537,000; -537,000;    0,000; 0,00000
 338,55; -383,000; -383,000;    0,000; 0,00000
 338,57;  109,000;  109,000;    0,000; 0,00000
 338,58;  655,000;  655,000;    0,000; 0,00000
 338,60;  211,000;  211,000;    0,000; 0,00000
 338,61; -405,000; -405,000;    0,000; 0,00000
 338,63; -249,000; -249,000;    0,000; 0,00000
 338,65;  174,000;  174,000;    0,000; 0,00000
 338,66; -656,000; -656,000;    0,000; 0,00000
 338,68; -229,000; -229,000;    0,000; 0,00000
 338,70; -214,000; -214,000;    0,000; 0,00000
 338,71;  619,000;  619,000;    0,000; 0,00000
 338,73; -547,000; -547,000;    0,000; 0,00000
 338,75;  600,000;  600,000;    0,000; 0,00000
 338,76;  218,000;  218,000;    0,000; 0,00000
 338,78;  539,000;  539,000;    0,000; 0,00000
 338,80; -740,000; -740,000;    0,000; 0,00000
 338,81;  230,000;  230,000;    0,000; 0,00000
 338,83; -114,000; -114,000;    0,000; 0,00000
 338,84;   11,000;   11,000;    0,000; 0,00000
 338,86; -548,000; -548,000;    0,000; 0,00000
 338,88; -142,000; -142,000;    0,000; 0,00000
 338,89;   81,000;   81,000;    0,000; 0,00000
 338,91;  157,000;  157,000;    0,000; 0,00000
 338,93; -718,000; -718,000;    0,000; 0,00000
 338,94; -420,000; -420,000;    0,000; 0,00000
 338,96; -191,000; -191,000;    0,000; 0,00000
 338,98;  242,000;  242,000;    0,000; 0,00000
 338,99; -689,000; -689,000;    0,000; 0,00000
 339,01;  229,000;  229,000;    0,000; 0,00000
 339,02;  728,000;  728,000;    0,000; 0,00000
 339,04; 1000,000; 1000,000;    0,000; 0,00000
 339,06; -183,000; -183,000;    0,000; 0,00000
 339,07; -135,000; -135,000;    0,000; 0,00000
 339,09; -147,000; -147,000;    0,000; 0,00000
 339,11;  -64,000;  -64,000;    0,000; 0,00000
 339,12; -130,000; -130,000;    0,000; 0,00000
 339,14; -550,000; -550,000;    0,000; 0,00000
 339,16;  545,000;  545,000;    0,000; 0,00000
 339,17;  478,000;  478,000;    0,000; 0,00000
 339,19; -666,000; -666,000;    0,000; 0,00000
 339,20; -251,000; -251,000;    0,000; 0,00000
 339,22;   83,000;   83,000;    0,000; 0,00000
 339,24;   98,000;   98,000;    0,000; 0,00000
 339,25; -435,000; -435,000;    0,000; 0,00000
 339,27; -469,000; -469,000;    0,000; 0,00000
 339,29; -219,000; -219,000;    0,000; 0,00000
 339,30;  753,000;  753,000;    0,000; 0,00000
 339,32; -865,000; -865,000;    0,000; 0,00000
 339,34; -166,000; -166,000;    0,000; 0,00000
 339,35;  198,000;  198,000;    0,000; 0,00000
 339,37;  616,000;  616,000;    0,000; 0,00000
 339,38; -721,000; -721,000;    0,000; 0,00000
 339,40; -289,000; -289,000;    0,000; 0,00000
 339,42; -197,000; -197,000;    0,000; 0,00000
 339,43;   99,000;   99,000;    0,000; 0,00000
 339,45; -540,000; -540,000;    0,000; 0,00000
 339,47; 1337,000; 1337,000;    0,000; 0,00000
 339,48;   68,000;   68,000;    0,000; 0,00000
 339,50;  615,000;  615,000;    0,000; 0,00000
 339,51; -504,000; -504,000;    0,000; 0,00000
 339,53;  -90,000;  -90,000;    0,000; 0,00000
 339,55;  141,000;  141,000;    0,000; 0,00000
 339,56;   80,000;   80,000;    0,000; 0,00000
 339,58; -364,000; -364,000;    0,000; 0,00000
 339,60; -526,000; -526,000;    0,000; 0,00000
 339,61; -245,000; -245,000;    0,000; 0,00000
 339,63; -224,000; -224,000;    0,000; 0,00000
 339,64; -298,000; -298,000;    0,000; 0,00000
 339,66; -304,000; -304,000;    0,000; 0,00000
 339,68; -165,000; -165,000;    0,000; 0,00000
 339,69;  499,000;  499,000;    0,000; 0,00000
 339,71; -396,000; -396,000;    0,000; 0,00000
 339,73; -101,000; -101,000;    0,000; 0,00000
 339,74; -272,000; -272,000;    0,000; 0,00000
 339,76;   11,000;   11,000;    0,000; 0,00000
 339,77; -630,000; -630,000;    0,000; 0,00000
 339,79; -460,000; -460,000;    0,000; 0,00000
 339,81; -112,000; -112,000;    0,000; 0,00000
 339,82; -238,000; -238,000;    0,000; 0,00000
 339,84;  620,000;  620,000;    0,000; 0,00000
 339,86;  213,000;  213,000;    0,000; 0,00000
 339,87;  458,000;  458,000;    0,000; 0,00000
 339,89;  344,000;  344,000;    0,000; 0,00000
 339,90; -307,000; -307,000;    0,000; 0,00000
 339,92;   54,000;   54,000;    0,000; 0,00000
 339,94; -261,000; -261,000;    0,000; 0,00000
 339,95;  243,000;  243,000;    0,000; 0,00000
 339,97;  -82,000;  -82,000;    0,000; 0,00000
 339,99;  186,000;  186,000;    0,000; 0,00000
 340,00; -119,000; -119,000;    0,000; 0,00000
 340,02;  183,000;  183,000;    0,000; 0,00000
 340,03; -450,000; -450,000;    0,000; 0,00000
 340,05; -741,000; -741,000;    0,000; 0,00000
 340,07;  113,000;  113,000;    0,000; 0,00000
 340,08;  120,000;  120,000;    0,000; 0,00000
 340,10; -432,000; -432,000;    0,000; 0,00000
 340,12; -319,000; -319,000;    0,000; 0,00000
 340,13; -406,000; -406,000;    0,000; 0,00000
 340,15;  154,000;  154,000;    0,000; 0,00000
 340,16; -100,000; -100,000;    0,000; 0,00000
 340,18;   86,000;   86,000;    0,000; 0,00000
 340,20; -199,000; -199,000;    0,000; 0,00000
 340,21;   31,000;   31,000;    0,000; 0,00000
 340,23; -671,000; -671,000;    0,000; 0,00000
 340,25; -270,000; -270,000;    0,000; 0,00000
 340,26;  131,000;  131,000;    0,000; 0,00000
 340,28;  790,000;  790,000;    0,000; 0,00000
 340,29; -402,000; -402,000;    0,000; 0,00000
 340,31; -234,000; -234,000;    0,000; 0,00000
 340,33;  577,000;  577,000;    0,000; 0,00000
 340,34;  409,000;  409,000;    0,000; 0,00000
 340,36; -551,000; -551,000;    0,000; 0,00000
 340,37; -449,000; -449,000;    0,000; 0,00000
 340,39; -207,000; -207,000;    0,000; 0,00000
 340,41;   38,000;   38,000;    0,000; 0,00000
 340,42; -519,000; -519,000;    0,000; 0,00000
 340,44; -616,000; -616,000;    0,000; 0,00000
 340,46; -176,000; -176,000;    0,000; 0,00000
 340,47;  208,000;  208,000;    0,000; 0,00000
 340,49; -737,000; -737,000;    0,000; 0,00000
 340,50; -196,000; -196,000;    0,000; 0,00000
 340,52;  134,000;  134,000;    0,000; 0,00000
 340,54; -102,000; -102,000;    0,000; 0,00000
 340,55; -406,000; -406,000;    0,000; 0,00000
 340,57; -323,000; -323,000;    0,000; 0,00000
 340,58; -174,000; -174,000;    0,000; 0,00000
 340,60;  199,000;  199,000;    0,000; 0,00000
 340,62; -233,000; -233,000;    0,000; 0,00000
 340,63; -537,000; -537,000;    0,000; 0,00000
 340,65;  333,000;  333,000;    0,000; 0,00000
 340,66; -103,000; -103,000;    0,000; 0,00000
 340,68; -266,000; -266,000;    0,000; 0,00000
 340,70; -483,000; -483,000;    0,000; 0,00000
 340,71;   22,000;   22,000;    0,000; 0,00000
 340,73;   46,000;   46,000;    0,000; 0,00000
 340,75; -621,000; -621,000;    0,000; 0,00000
 340,76;   11,000;   11,000;    0,000; 0,00000
 340,78; -147,000; -147,000;    0,000; 0,00000
 340,79;  -15,000;  -15,000;    0,000; 0,00000
 340,81; -365,000; -365,000;    0,000; 0,00000
 340,83; -575,000; -575,000;    0,000; 0,00000
 340,84; -310,000; -310,000;    0,000; 0,00000
 340,86;  586,000;  586,000;    0,000; 0,00000
 340,87; -817,000; -817,000;    0,000; 0,00000
 340,89; -535,000; -535,000;    0,000; 0,00000
 340,91;  243,000;  243,000;    0,000; 0,00000
 340,92;  117,000;  117,000;    0,000; 0,00000
 340,94;  185,000;  185,000;    0,000; 0,00000
 340,95; -457,000; -457,000;    0,000; 0,00000
 340,97; -255,000; -255,000;    0,000; 0,00000
 340,99;  783,000;  783,000;    0,000; 0,00000
 341,00; -583,000; -583,000;    0,000; 0,00000
 341,02; -618,000; -618,000;    0,000; 0,00000
 341,03; -342,000; -342,000;    0,000; 0,00000
 341,05;  360,000;  360,000;    0,000; 0,00000
 341,07; -816,000; -816,000;    0,000; 0,00000
 341,08;  146,000;  146,000;    0,000; 0,00000
 341,10; -103,000; -103,000;    0,000; 0,00000
 341,12;  519,000;  519,000;    0,000; 0,00000
 341,13; -958,000; -958,000;    0,000; 0,00000
 341,15; -506,000; -506,000;    0,000; 0,00000
 341,16;   91,000;   91,000;    0,000; 0,00000
 341,18;   32,000;   32,000;    0,000; 0,00000
 341,20;  128,000;  128,000;    0,000; 0,00000
 341,21; -171,000; -171,000;    0,000; 0,00000
 341,23; 1149,000; 1149,000;    0,000; 0,00000
 341,24;  893,000;  893,000;    0,000; 0,00000
 341,26; -540,000; -540,000;    0,000; 0,00000
 341,28; -350,000; -350,000;    0,000; 0,00000
 341,29;   23,000;   23,000;    0,000; 0,00000
 341,31;  252,000;  252,000;    0,000; 0,00000
 341,32; -345,000; -345,000;    0,000; 0,00000
 341,34; -218,000; -218,000;    0,000; 0,00000
 341,36; -407,000; -407,000;    0,000; 0,00000
 341,37;  319,000;  319,000;    0,000; 0,00000
 341,39; -370,000; -370,000;    0,000; 0,00000
 341,40; -531,000; -531,000;    0,000; 0,00000
 341,42;   99,000;   99,000;    0,000; 0,00000
 341,44;  214,000;  214,000;    0,000; 0,00000
 341,45; -448,000; -448,000;    0,000; 0,00000
 341,47; -643,000; -643,000;    0,000; 0,00000
 341,48; -175,000; -175,000;    0,000; 0,00000
 341,50;  315,000;  315,000;    0,000; 0,00000
 341,52; -665,000; -665,000;    0,000; 0,00000
 341,53; -728,000; -728,000;    0,000; 0,00000
 341,55; -241,000; -241,000;    0,000; 0,00000
 341,56;  374,000;  374,000;    0,000; 0,00000
 341,58; -244,000; -244,000;    0,000; 0,00000
 341,59; -357,000; -357,000;    0,000; 0,00000
 341,61;  834,000;  834,000;    0,000; 0,00000
 341,63;  671,000;  671,000;    0,000; 0,00000
 341,64; -515,000; -515,000;    0,000; 0,00000
 341,66;   10,000;   10,000;    0,000; 0,00000
 341,67;  456,000;  456,000;    0,000; 0,00000
 341,69;  165,000;  165,000;    0,000; 0,00000
 341,71; -928,000; -928,000;    0,000; 0,00000
 341,72; -212,000; -212,000;    0,000; 0,00000
 341,74;   57,000;   57,000;    0,000; 0,00000
 341,75;  152,000;  152,000;    0,000; 0,00000
 341,77; -781,000; -781,000;    0,000; 0,00000
 341,79; -370,000; -370,000;    0,000; 0,00000
 341,80;  514,000;  514,000;    0,000; 0,00000
 341,82;  650,000;  650,000;    0,000; 0,00000
 341,83; -686,000; -686,000;    0,000; 0,00000
 341,85;   69,000;   69,000;    0,000; 0,00000
 341,87;  137,000;  137,000;    0,000; 0,00000
 341,88;  577,000;  577,000;    0,000; 0,00000
 341,90; -933,000; -933,000;    0,000; 0,00000
 341,91; -495,000; -495,000;    0,000; 0,00000
 341,93;   61,000;   61,000;    0,000; 0,00000
 341,95;  556,000;  556,000;    0,000; 0,00000
 341,96; -291,000; -291,000;    0,000; 0,00000
 341,98; -655,000; -655,000;    0,000; 0,00000
 341,99;  117,000;  117,000;    0,000; 0,00000
 342,01;  358,000;  358,000;    0,000; 0,00000
 342,02;  -60,000;  -60,000;    0,000; 0,00000
 342,04; -568,000; -568,000;    0,000; 0,00000
 342,06;  387,000;  387,000;    0,000; 0,00000
 342,07; -214,000; -214,000;    0,000; 0,00000
 342,09;-1029,000;-1029,000;    0,000; 0,00000
 342,10; -622,000; -622,000;    0,000; 0,00000
 342,12;  382,000;  382,000;    0,000; 0,00000
 342,14;  443,000;  443,000;    0,000; 0,00000
 342,15; -437,000; -437,000;    0,000; 0,00000
 342,17; -255,000; -255,000;    0,000; 0,00000
 342,18;  325,000;  325,000;    0,000; 0,00000
 342,20;  -87,000;  -87,000;    0,000; 0,00000
 342,22; -470,000; -470,000;    0,000; 0,00000
 342,23; -347,000; -347,000;    0,000; 0,00000
 342,25;  269,000;  269,000;    0,000; 0,00000
 342,26;  324,000;  324,000;    0,000; 0,00000
 342,28;   63,000;   63,000;    0,000; 0,00000
 342,29; -837,000; -837,000;    0,000; 0,00000
 342,31;  339,000;  339,000;    0,000; 0,00000
 342,33;   92,000;   92,000;    0,000; 0,00000
 342,34;   24,000;   24,000;    0,000; 0,00000
 342,36; -765,000; -765,000;    0,000; 0,00000
 342,37;  202,000;  202,000;    0,000; 0,00000
 342,39; -143,000; -143,000;    0,000; 0,00000
 342,41; -256,000; -256,000;    0,000; 0,00000
 342,42; -516,000; -516,000;    0,000; 0,00000
 342,44; -202,000; -202,000;    0,000; 0,00000
 342,45;  277,000;  277,000;    0,000; 0,00000
 342,47;  677,000;  677,000;    0,000; 0,00000
 342,48; -692,000; -692,000;    0,000; 0,00000
 342,50;  344,000;  344,000;    0,000; 0,00000
 342,52;  321,000;  321,000;    0,000; 0,00000
 342,53; -703,000; -703,000;    0,000; 0,00000
 342,55; -454,000; -454,000;    0,000; 0,00000
 342,56; -288,000; -288,000;    0,000; 0,00000
 342,58;    8,000;    8,000;    0,000; 0,00000
 342,60;  603,000;  603,000;    0,000; 0,00000
 342,61; -564,000; -564,000;    0,000; 0,00000
 342,63;   25,000;   25,000;    0,000; 0,00000
 342,64;  810,000;  810,000;    0,000; 0,00000
 342,66; -186,000; -186,000;    0,000; 0,00000
 342,67; -209,000; -209,000;    0,000; 0,00000
 342,69;  236,000;  236,000;    0,000; 0,00000
 342,71;  452,000;  452,000;    0,000; 0,00000
 342,72; -793,000; -793,000;    0,000; 0,00000
 342,74; -421,000; -421,000;    0,000; 0,00000
 342,75;  260,000;  260,000;    0,000; 0,00000
 342,77; -104,000; -104,000;    0,000; 0,00000
 342,78; -692,000; -692,000;    0,000; 0,00000
 342,80; -509,000; -509,000;    0,000; 0,00000
 342,82;  120,000;  120,000;    0,000; 0,00000
 342,83;  292,000;  292,000;    0,000; 0,00000
 342,85; -362,000; -362,000;    0,000; 0,00000
 342,86; -772,000; -772,000;    0,000; 0,00000
 342,88;  292,000;  292,000;    0,000; 0,00000
 342,89;  684,000;  684,000;    0,000; 0,00000
 342,91; -638,000; -638,000;    0,000; 0,00000
 342,93; -543,000; -543,000;    0,000; 0,00000
 342,94;  200,000;  200,000;    0,000; 0,00000
 342,96;  158,000;  158,000;    0,000; 0,00000
 342,97; -644,000; -644,000;    0,000; 0,00000
 342,99; -343,000; -343,000;    0,000; 0,00000
 343,01;  -97,000;  -97,000;    0,000; 0,00000
 343,02;  -14,000;  -14,000;    0,000; 0,00000
 343,04; -881,000; -881,000;    0,000; 0,00000
 343,05; -660,000; -660,000;    0,000; 0,00000
 343,07;  403,000;  403,000;    0,000; 0,00000
 343,08;  737,000;  737,000;    0,000; 0,00000
 343,10; -707,000; -707,000;    0,000; 0,00000
 343,12;  271,000;  271,000;    0,000; 0,00000
 343,13;  -32,000;  -32,000;    0,000; 0,00000
 343,15;  365,000;  365,000;    0,000; 0,00000
 343,16; 1109,000; 1109,000;    0,000; 0,00000
 343,18; -470,000; -470,000;    0,000; 0,00000
 343,19;   14,000;   14,000;    0,000; 0,00000
 343,21;  430,000;  430,000;    0,000; 0,00000
 343,22; -371,000; -371,000;    0,000; 0,00000
 343,24; -552,000; -552,000;    0,000; 0,00000
 343,26;  211,000;  211,000;    0,000; 0,00000
 343,27;   79,000;   79,000;    0,000; 0,00000
 343,29; -587,000; -587,000;    0,000; 0,00000
 343,30;  -50,000;  -50,000;    0,000; 0,00000
 343,32;  -42,000;  -42,000;    0,000; 0,00000
 343,33;  315,000;  315,000;    0,000; 0,00000
 343,35; -716,000; -716,000;    0,000; 0,00000
 343,37; -496,000; -496,000;    0,000; 0,00000
 343,38;  513,000;  513,000;    0,000; 0,00000
 343,40;  187,000;  187,000;    0,000; 0,00000
 343,41; -672,000; -672,000;    0,000; 0,00000
 343,43; -622,000; -622,000;    0,000; 0,00000
 343,44;  448,000;  448,000;    0,000; 0,00000
 343,46;  556,000;  556,000;    0,000; 0,00000
 343,48; -858,000; -858,000;    0,000; 0,00000
 343,49; -316,000; -316,000;    0,000; 0,00000
 343,51;  313,000;  313,000;    0,000; 0,00000
 343,52;  -24,000;  -24,000;    0,000; 0,00000
 343,54;   52,000;   52,000;    0,000; 0,00000
 343,55; -709,000; -709,000;    0,000; 0,00000
 343,57;  118,000;  118,000;    0,000; 0,00000
 343,59;  164,000;  164,000;    0,000; 0,00000
 343,60; -152,000; -152,000;    0,000; 0,00000
 343,62; -734,000; -734,000;    0,000; 0,00000
 343,63;  248,000;  248,000;    0,000; 0,00000
 343,65;  -71,000;  -71,000;    0,000; 0,00000
 343,66; -946,000; -946,000;    0,000; 0,00000
 343,68; -334,000; -334,000;    0,000; 0,00000
 343,69;  -41,000;  -41,000;    0,000; 0,00000
 343,71;  712,000;  712,000;    0,000; 0,00000
 343,73; -463,000; -463,000;    0,000; 0,00000
 343,74; -639,000; -639,000;    0,000; 0,00000
 343,76;  269,000;  269,000;    0,000; 0,00000
 343,77;  419,000;  419,000;    0,000; 0,00000
 343,79; -172,000; -172,000;    0,000; 0,00000
 343,80; -294,000; -294,000;    0,000; 0,00000
 343,82;  -99,000;  -99,000;    0,000; 0,00000
 343,83;  286,000;  286,000;    0,000; 0,00000
 343,85; -768,000; -768,000;    0,000; 0,00000
 343,87; -496,000; -496,000;    0,000; 0,00000
 343,88;  -55,000;  -55,000;    0,000; 0,00000
 343,90; -154,000; -154,000;    0,000; 0,00000
 343,91; -845,000; -845,000;    0,000; 0,00000
 343,93; -430,000; -430,000;    0,000; 0,00000
 343,94;  -96,000;  -96,000;    0,000; 0,00000
 343,96; -182,000; -182,000;    0,000; 0,00000
 343,98; -527,000; -527,000;    0,000; 0,00000
 343,99; -369,000; -369,000;    0,000; 0,00000
 344,01;   37,000;   37,000;    0,000; 0,00000
 344,02;  512,000;  512,000;    0,000; 0,00000
 344,04;   69,000;   69,000;    0,000; 0,00000
 344,05; -244,000; -244,000;    0,000; 0,00000
 344,07;  -78,000;  -78,000;    0,000; 0,00000
 344,08;  174,000;  174,000;    0,000; 0,00000
 344,10; -312,000; -312,000;    0,000; 0,00000
 344,12; -610,000; -610,000;    0,000; 0,00000
 344,13;    2,000;    2,000;    0,000; 0,00000
 344,15;  259,000;  259,000;    0,000; 0,00000
 344,16; -451,000; -451,000;    0,000; 0,00000
 344,18; -156,000; -156,000;    0,000; 0,00000
 344,19;  243,000;  243,000;    0,000; 0,00000
 344,21;  269,000;  269,000;    0,000; 0,00000
 344,22; -354,000; -354,000;    0,000; 0,00000
 344,24; -384,000; -384,000;    0,000; 0,00000
 344,25;  698,000;  698,000;    0,000; 0,00000
 344,27;  367,000;  367,000;    0,000; 0,00000
 344,29; -733,000; -733,000;    0,000; 0,00000
 344,30; -619,000; -619,000;    0,000; 0,00000
 344,32;  294,000;  294,000;    0,000; 0,00000
 344,33;  525,000;  525,000;    0,000; 0,00000
 344,35; -646,000; -646,000;    0,000; 0,00000
 344,36;   89,000;   89,000;    0,000; 0,00000
 344,38;  101,000;  101,000;    0,000; 0,00000
 344,39;  277,000;  277,000;    0,000; 0,00000
 344,41; -153,000; -153,000;    0,000; 0,00000
 344,43; -181,000; -181,000;    0,000; 0,00000
 344,44; -235,000; -235,000;    0,000; 0,00000
 344,46;  422,000;  422,000;    0,000; 0,00000
 344,47; -879,000; -879,000;    0,000; 0,00000
 344,49; -271,000; -271,000;    0,000; 0,00000
 344,50;  130,000;  130,000;    0,000; 0,00000
 344,52;  348,000;  348,000;    0,000; 0,00000
 344,53; -665,000; -665,000;    0,000; 0,00000
 344,55; -388,000; -388,000;    0,000; 0,00000
 344,56; -293,000; -293,000;    0,000; 0,00000
 344,58;  755,000;  755,000;    0,000; 0,00000
 344,60; -768,000; -768,000;    0,000; 0,00000
 344,61; -557,000; -557,000;    0,000; 0,00000
 344,63;  518,000;  518,000;    0,000; 0,00000
 344,64;  457,000;  457,000;    0,000; 0,00000
 344,66; -726,000; -726,000;    0,000; 0,00000
 344,67; -722,000; -722,000;    0,000; 0,00000
 344,69;  324,000;  324,000;    0,000; 0,00000
 344,70;  101,000;  101,000;    0,000; 0,00000
 344,72; -477,000; -477,000;    0,000; 0,00000
 344,73; -439,000; -439,000;    0,000; 0,00000
 344,75;   -3,000;   -3,000;    0,000; 0,00000
 344,77;  158,000;  158,000;    0,000; 0,00000
 344,78; -189,000; -189,000;    0,000; 0,00000
 344,80; -591,000; -591,000;    0,000; 0,00000
 344,81;  -27,000;  -27,000;    0,000; 0,00000
 344,83;  444,000;  444,000;    0,000; 0,00000
 344,84; -699,000; -699,000;    0,000; 0,00000
 344,86; -339,000; -339,000;    0,000; 0,00000
 344,87;  653,000;  653,000;    0,000; 0,00000
 344,89;    8,000;    8,000;    0,000; 0,00000
 344,90; -146,000; -146,000;    0,000; 0,00000
 344,92; -392,000; -392,000;    0,000; 0,00000
 344,93; -235,000; -235,000;    0,000; 0,00000
 344,95;  408,000;  408,000;    0,000; 0,00000
 344,97; -778,000; -778,000;    0,000; 0,00000
 344,98; -717,000; -717,000;    0,000; 0,00000
 345,00;  170,000;  170,000;    0,000; 0,00000
 345,01;   98,000;   98,000;    0,000; 0,00000
 345,03; -914,000; -914,000;    0,000; 0,00000
 345,04;  557,000;  557,000;    0,000; 0,00000
 345,06;  244,000;  244,000;    0,000; 0,00000
 345,07; -105,000; -105,000;    0,000; 0,00000
 345,09; -405,000; -405,000;    0,000; 0,00000
 345,10; -635,000; -635,000;    0,000; 0,00000
 345,12;  -39,000;  -39,000;    0,000; 0,00000
 345,13;  736,000;  736,000;    0,000; 0,00000
 345,15; -610,000; -610,000;    0,000; 0,00000
 345,17; -445,000; -445,000;    0,000; 0,00000
 345,18;  227,000;  227,000;    0,000; 0,00000
 345,20;   88,000;   88,000;    0,000; 0,00000
 345,21; -824,000; -824,000;    0,000; 0,00000
 345,23; -611,000; -611,000;    0,000; 0,00000
 345,24; -368,000; -368,000;    0,000; 0,00000
 345,26;   -7,000;   -7,000;    0,000; 0,00000
 345,27; -612,000; -612,000;    0,000; 0,00000
 345,29; -244,000; -244,000;    0,000; 0,00000
 345,30; -289,000; -289,000;    0,000; 0,00000
 345,32;  830,000;  830,000;    0,000; 0,00000
 345,33; -681,000; -681,000;    0,000; 0,00000
 345,35; -710,000; -710,000;    0,000; 0,00000
 345,37;  210,000;  210,000;    0,000; 0,00000
 345,38;  345,000;  345,000;    0,000; 0,00000
 345,40; -917,000; -917,000;    0,000; 0,00000
 345,41; -309,000; -309,000;    0,000; 0,00000
 345,43;  257,000;  257,000;    0,000; 0,00000
 345,44;  203,000;  203,000;    0,000; 0,00000
 345,46;-1131,000;-1131,000;    0,000; 0,00000
 345,47; -513,000; -513,000;    0,000; 0,00000
 345,49; -232,000; -232,000;    0,000; 0,00000
 345,50;  878,000;  878,000;    0,000; 0,00000
 345,52; -794,000; -794,000;    0,000; 0,00000
 345,53; -612,000; -612,000;    0,000; 0,00000
 345,55; -136,000; -136,000;    0,000; 0,00000
 345,56;  326,000;  326,000;    0,000; 0,00000
 345,58; -283,000; -283,000;    0,000; 0,00000
 345,59; -341,000; -341,000;    0,000; 0,00000
 345,61;   22,000;   22,000;    0,000; 0,00000
 345,63;  154,000;  154,000;    0,000; 0,00000
 345,64; -979,000; -979,000;    0,000; 0,00000
 345,66;  -88,000;  -88,000;    0,000; 0,00000
 345,67;  682,000;  682,000;    0,000; 0,00000
 345,69;  477,000;  477,000;    0,000; 0,00000
 345,70; -771,000; -771,000;    0,000; 0,00000
 345,72; -486,000; -486,000;    0,000; 0,00000
 345,73;  308,000;  308,000;    0,000; 0,00000
 345,75;   15,000;   15,000;    0,000; 0,00000
 345,76; -577,000; -577,000;    0,000; 0,00000
 345,78; -252,000; -252,000;    0,000; 0,00000
 345,79;  313,000;  313,000;    0,000; 0,00000
 345,81;  170,000;  170,000;    0,000; 0,00000
 345,82; -212,000; -212,000;    0,000; 0,00000
 345,84; -561,000; -561,000;    0,000; 0,00000
 345,85;   42,000;   42,000;    0,000; 0,00000
 345,87;  422,000;  422,000;    0,000; 0,00000
 345,88; -577,000; -577,000;    0,000; 0,00000
 345,90; -270,000; -270,000;    0,000; 0,00000
 345,92;  -20,000;  -20,000;    0,000; 0,00000
 345,93;  445,000;  445,000;    0,000; 0,00000
 345,95; -135,000; -135,000;    0,000; 0,00000
 345,96; -429,000; -429,000;    0,000; 0,00000
 345,98;  277,000;  277,000;    0,000; 0,00000
 345,99;  144,000;  144,000;    0,000; 0,00000
 346,01;  -35,000;  -35,000;    0,000; 0,00000
 346,02; -628,000; -628,000;    0,000; 0,00000
 346,04;  240,000;  240,000;    0,000; 0,00000
 346,05;  -42,000;  -42,000;    0,000; 0,00000
 346,07; -842,000; -842,000;    0,000; 0,00000
 346,08; -470,000; -470,000;    0,000; 0,00000
 346,10; -276,000; -276,000;    0,000; 0,00000
 346,11;   14,000;   14,000;    0,000; 0,00000
 346,13;    5,000;    5,000;    0,000; 0,00000
 346,14; -219,000; -219,000;    0,000; 0,00000
 346,16;   49,000;   49,000;    0,000; 0,00000
 346,17;  682,000;  682,000;    0,000; 0,00000
 346,19; -843,000; -843,000;    0,000; 0,00000
 346,20; -448,000; -448,000;    0,000; 0,00000
 346,22;  -53,000;  -53,000;    0,000; 0,00000
 346,23; -230,000; -230,000;    0,000; 0,00000
 346,25; -613,000; -613,000;    0,000; 0,00000
 346,26; -510,000; -510,000;    0,000; 0,00000
 346,28;  330,000;  330,000;    0,000; 0,00000
 346,30;  861,000;  861,000;    0,000; 0,00000
 346,31; -909,000; -909,000;    0,000; 0,00000
 346,33; -743,000; -743,000;    0,000; 0,00000
 346,34;  453,000;  453,000;    0,000; 0,00000
 346,36;   17,000;   17,000;    0,000; 0,00000
 346,37; -971,000; -971,000;    0,000; 0,00000
 346,39; -185,000; -185,000;    0,000; 0,00000
 346,40; -405,000; -405,000;    0,000; 0,00000
 346,42;  368,000;  368,000;    0,000; 0,00000
 346,43; -821,000; -821,000;    0,000; 0,00000
 346,45;   98,000;   98,000;    0,000; 0,00000
 346,46;  -74,000;  -74,000;    0,000; 0,00000
 346,48;  167,000;  167,000;    0,000; 0,00000
 346,49; -914,000; -914,000;    0,000; 0,00000
 346,51; -501,000; -501,000;    0,000; 0,00000
 346,52; -261,000; -261,000;    0,000; 0,00000
 346,54;  589,000;  589,000;    0,000; 0,00000
 346,55; -424,000; -424,000;    0,000; 0,00000
 346,57; -517,000; -517,000;    0,000; 0,00000
 346,58; 1106,000; 1106,000;    0,000; 0,00000
 346,60; -175,000; -175,000;    0,000; 0,00000
 346,61; -791,000; -791,000;    0,000; 0,00000
 346,63; -686,000; -686,000;    0,000; 0,00000
 346,64;  520,000;  520,000;    0,000; 0,00000
 346,66;  341,000;  341,000;    0,000; 0,00000
 346,67; -765,000; -765,000;    0,000; 0,00000
 346,69; -234,000; -234,000;    0,000; 0,00000
 346,70;  -81,000;  -81,000;    0,000; 0,00000
 346,72;  118,000;  118,000;    0,000; 0,00000
 346,73; -359,000; -359,000;    0,000; 0,00000
 346,75; -323,000; -323,000;    0,000; 0,00000
 346,76; -313,000; -313,000;    0,000; 0,00000
 346,78;  -67,000;  -67,000;    0,000; 0,00000
 346,79; -377,000; -377,000;    0,000; 0,00000
 346,81; -552,000; -552,000;    0,000; 0,00000
 346,82;  297,000;  297,000;    0,000; 0,00000
 346,84;  443,000;  443,000;    0,000; 0,00000
 346,85; -429,000; -429,000;    0,000; 0,00000
 346,87; -391,000; -391,000;    0,000; 0,00000
 346,88; -320,000; -320,000;    0,000; 0,00000
 346,90;  236,000;  236,000;    0,000; 0,00000
 346,91;  -20,000;  -20,000;    0,000; 0,00000
 346,93;  -13,000;  -13,000;    0,000; 0,00000
 346,94; -167,000; -167,000;    0,000; 0,00000
 346,96;  386,000;  386,000;    0,000; 0,00000
 346,97;   50,000;   50,000;    0,000; 0,00000
 346,99; -620,000; -620,000;    0,000; 0,00000
 347,00; -136,000; -136,000;    0,000; 0,00000
 347,02;  280,000;  280,000;    0,000; 0,00000
 347,04; -955,000; -955,000;    0,000; 0,00000
 347,05; -123,000; -123,000;    0,000; 0,00000
 347,07;  234,000;  234,000;    0,000; 0,00000
 347,08;  510,000;  510,000;    0,000; 0,00000
 347,10;  140,000;  140,000;    0,000; 0,00000
 347,11;  -48,000;  -48,000;    0,000; 0,00000
 347,13; -267,000; -267,000;    0,000; 0,00000
 347,14;  687,000;  687,000;    0,000; 0,00000
 347,16; -289,000; -289,000;    0,000; 0,00000
 347,17; -696,000; -696,000;    0,000; 0,00000
 347,19;    2,000;    2,000;    0,000; 0,00000
 347,20;  -48,000;  -48,000;    0,000; 0,00000
 347,22; -684,000; -684,000;    0,000; 0,00000
 347,23; -453,000; -453,000;    0,000; 0,00000
 347,25; -274,000; -274,000;    0,000; 0,00000
 347,26;  273,000;  273,000;    0,000; 0,00000
 347,28; -896,000; -896,000;    0,000; 0,00000
 347,29; -220,000; -220,000;    0,000; 0,00000
 347,31; -170,000; -170,000;    0,000; 0,00000
 347,32;  321,000;  321,000;    0,000; 0,00000
 347,34;  -85,000;  -85,000;    0,000; 0,00000
 347,35;  260,000;  260,000;    0,000; 0,00000
 347,37; -392,000; -392,000;    0,000; 0,00000
 347,38;   15,000;   15,000;    0,000; 0,00000
 347,40; -473,000; -473,000;    0,000; 0,00000
 347,41; -365,000; -365,000;    0,000; 0,00000
 347,42;  478,000;  478,000;    0,000; 0,00000
 347,44;  272,000;  272,000;    0,000; 0,00000
 347,45; -130,000; -130,000;    0,000; 0,00000
 347,47;   89,000;   89,000;    0,000; 0,00000
 347,48;  358,000;  358,000;    0,000; 0,00000
 347,50;  513,000;  513,000;    0,000; 0,00000
 347,51; -582,000; -582,000;    0,000; 0,00000
 347,53; -377,000; -377,000;    0,000; 0,00000
 347,54;  317,000;  317,000;    0,000; 0,00000
 347,56;  107,000;  107,000;    0,000; 0,00000
 347,57; -405,000; -405,000;    0,000; 0,00000
 347,59; -389,000; -389,000;    0,000; 0,00000
 347,60; -352,000; -352,000;    0,000; 0,00000
 347,62; -256,000; -256,000;    0,000; 0,00000
 347,63; -728,000; -728,000;    0,000; 0,00000
 347,65; -165,000; -165,000;    0,000; 0,00000
 347,66; -222,000; -222,000;    0,000; 0,00000
 347,68;  184,000;  184,000;    0,000; 0,00000
 347,69; -562,000; -562,000;    0,000; 0,00000
 347,71; -544,000; -544,000;    0,000; 0,00000
 347,72;  442,000;  442,000;    0,000; 0,00000
 347,74;  -39,000;  -39,000;    0,000; 0,00000
 347,75; -610,000; -610,000;    0,000; 0,00000
 347,77;  151,000;  151,000;    0,000; 0,00000
 347,78; -222,000; -222,000;    0,000; 0,00000
 347,80;  -35,000;  -35,000;    0,000; 0,00000
 347,81; -297,000; -297,000;    0,000; 0,00000
 347,83; -251,000; -251,000;    0,000; 0,00000
 347,84;  152,000;  152,000;    0,000; 0,00000
 347,86; 1351,000; 1351,000;    0,000; 0,00000
 347,87; -417,000; -417,000;    0,000; 0,00000
 347,89; -345,000; -345,000;    0,000; 0,00000
 347,90;  191,000;  191,000;    0,000; 0,00000
 347,92;  350,000;  350,000;    0,000; 0,00000
 347,93; -336,000; -336,000;    0,000; 0,00000
 347,95; -145,000; -145,000;    0,000; 0,00000
 347,96;  -40,000;  -40,000;    0,000; 0,00000
 347,98;  -75,000;  -75,000;    0,000; 0,00000
 347,99; -837,000; -837,000;    0,000; 0,00000
 348,01; -442,000; -442,000;    0,000; 0,00000
 348,02;  290,000;  290,000;    0,000; 0,00000
 348,04;  740,000;  740,000;    0,000; 0,00000
 348,05; -881,000; -881,000;    0,000; 0,00000
 348,07; -407,000; -407,000;    0,000; 0,00000
 348,08;  299,000;  299,000;    0,000; 0,00000
 348,10; -109,000; -109,000;    0,000; 0,00000
 348,11; -940,000; -940,000;    0,000; 0,00000
 348,13; -595,000; -595,000;    0,000; 0,00000
 348,14; -181,000; -181,000;    0,000; 0,00000
 348,16;  665,000;  665,000;    0,000; 0,00000
 348,17; -434,000; -434,000;    0,000; 0,00000
 348,18; -368,000; -368,000;    0,000; 0,00000
 348,20;  201,000;  201,000;    0,000; 0,00000
 348,21;   97,000;   97,000;    0,000; 0,00000
 348,23; -425,000; -425,000;    0,000; 0,00000
 348,24; -471,000; -471,000;    0,000; 0,00000
 348,26;  276,000;  276,000;    0,000; 0,00000
 348,27;  500,000;  500,000;    0,000; 0,00000
 348,29; -701,000; -701,000;    0,000; 0,00000
 348,30; -585,000; -585,000;    0,000; 0,00000
 348,32;    7,000;    7,000;    0,000; 0,00000
 348,33;  384,000;  384,000;    0,000; 0,00000
 348,35; -880,000; -880,000;    0,000; 0,00000
 348,36; -549,000; -549,000;    0,000; 0,00000
 348,38;  -64,000;  -64,000;    0,000; 0,00000
 348,39;  225,000;  225,000;    0,000; 0,00000
 348,41; -706,000; -706,000;    0,000; 0,00000
 348,42; -712,000; -712,000;    0,000; 0,00000
 348,44;  418,000;  418,000;    0,000; 0,00000
 348,45;  130,000;  130,000;    0,000; 0,00000
 348,47; -453,000; -453,000;    0,000; 0,00000
 348,48; -133,000; -133,000;    0,000; 0,00000
 348,50;  676,000;  676,000;    0,000; 0,00000
 348,51; -101,000; -101,000;    0,000; 0,00000
 348,53; -337,000; -337,000;    0,000; 0,00000
 348,54; -523,000; -523,000;    0,000; 0,00000
 348,55; -378,000; -378,000;    0,000; 0,00000
 348,57;  412,000;  412,000;    0,000; 0,00000
 348,58; -726,000; -726,000;    0,000; 0,00000
 348,60; -569,000; -569,000;    0,000; 0,00000
 348,61; -379,000; -379,000;    0,000; 0,00000
 348,63;  869,000;  869,000;    0,000; 0,00000
 348,64; -810,000; -810,000;    0,000; 0,00000
 348,66; -669,000; -669,000;    0,000; 0,00000
 348,67; -264,000; -264,000;    0,000; 0,00000
 348,69;  416,000;  416,000;    0,000; 0,00000
 348,70; -767,000; -767,000;    0,000; 0,00000
 348,72;  147,000;  147,000;    0,000; 0,00000
 348,73;  386,000;  386,000;    0,000; 0,00000
 348,75;  246,000;  246,000;    0,000; 0,00000
 348,76; -264,000; -264,000;    0,000; 0,00000
 348,78; -562,000; -562,000;    0,000; 0,00000
 348,79; -394,000; -394,000;    0,000; 0,00000
 348,81; -145,000; -145,000;    0,000; 0,00000
 348,82; -581,000; -581,000;    0,000; 0,00000
 348,83;  680,000;  680,000;    0,000; 0,00000
 348,85; -217,000; -217,000;    0,000; 0,00000
 348,86; -145,000; -145,000;    0,000; 0,00000
 348,88; -526,000; -526,000;    0,000; 0,00000
 348,89; -725,000; -725,000;    0,000; 0,00000
 348,91;   64,000;   64,000;    0,000; 0,00000
 348,92;  155,000;  155,000;    0,000; 0,00000
 348,94; -160,000; -160,000;    0,000; 0,00000
 348,95; -527,000; -527,000;    0,000; 0,00000
 348,97;   34,000;   34,000;    0,000; 0,00000
 348,98;  270,000;  270,000;    0,000; 0,00000
 349,00; -930,000; -930,000;    0,000; 0,00000
 349,01; -192,000; -192,000;    0,000; 0,00000
 349,03; -147,000; -147,000;    0,000; 0,00000
 349,04;  425,000;  425,000;    0,000; 0,00000
 349,05;   79,000;   79,000;    0,000; 0,00000
 349,07;   55,000;   55,000;    0,000; 0,00000
 349,08;  132,000;  132,000;    0,000; 0,00000
 349,10;  202,000;  202,000;    0,000; 0,00000
 349,11; -447,000; -447,000;    0,000; 0,00000
 349,13; -107,000; -107,000;    0,000; 0,00000
 349,14; -348,000; -348,000;    0,000; 0,00000
 349,16;   -4,000;   -4,000;    0,000; 0,00000
 349,17; -557,000; -557,000;    0,000; 0,00000
 349,19; -680,000; -680,000;    0,000; 0,00000
 349,20; -221,000; -221,000;    0,000; 0,00000
 349,22;  148,000;  148,000;    0,000; 0,00000
 349,23; -924,000; -924,000;    0,000; 0,00000
 349,25; -737,000; -737,000;    0,000; 0,00000
 349,26; 1132,000; 1132,000;    0,000; 0,00000
 349,27;  199,000;  199,000;    0,000; 0,00000
 349,29; -438,000; -438,000;    0,000; 0,00000
 349,30;  -44,000;  -44,000;    0,000; 0,00000
 349,32;  -52,000;  -52,000;    0,000; 0,00000
 349,33;  768,000;  768,000;    0,000; 0,00000
 349,35; -826,000; -826,000;    0,000; 0,00000
 349,36; -527,000; -527,000;    0,000; 0,00000
 349,38;  254,000;  254,000;    0,000; 0,00000
 349,39;  -58,000;  -58,000;    0,000; 0,00000
 349,41; -498,000; -498,000;    0,000; 0,00000
 349,42; -191,000; -191,000;    0,000; 0,00000
 349,44;   45,000;   45,000;    0,000; 0,00000
 349,45; -353,000; -353,000;    0,000; 0,00000
 349,46;  103,000;  103,000;    0,000; 0,00000
 349,48; -287,000; -287,000;    0,000; 0,00000
 349,49;  189,000;  189,000;    0,000; 0,00000
 349,51;  414,000;  414,000;    0,000; 0,00000
 349,52; -750,000; -750,000;    0,000; 0,00000
 349,54; -345,000; -345,000;    0,000; 0,00000
 349,55; -375,000; -375,000;    0,000; 0,00000
 349,57; -308,000; -308,000;    0,000; 0,00000
 349,58; -419,000; -419,000;    0,000; 0,00000
 349,60; -347,000; -347,000;    0,000; 0,00000
 349,61;   14,000;   14,000;    0,000; 0,00000
 349,62;  158,000;  158,000;    0,000; 0,00000
 349,64; -640,000; -640,000;    0,000; 0,00000
 349,65;   64,000;   64,000;    0,000; 0,00000
 349,67;   15,000;   15,000;    0,000; 0,00000
 349,68;  -81,000;  -81,000;    0,000; 0,00000
 349,70; -449,000; -449,000;    0,000; 0,00000
 349,71;  346,000;  346,000;    0,000; 0,00000
 349,73; -220,000; -220,000;    0,000; 0,00000
 349,74;  201,000;  201,000;    0,000; 0,00000
 349,76; -382,000; -382,000;    0,000; 0,00000
 349,77; -401,000; -401,000;    0,000; 0,00000
 349,78; -147,000; -147,000;    0,000; 0,00000
 349,80;  -12,000;  -12,000;    0,000; 0,00000
 349,81; -759,000; -759,000;    0,000; 0,00000
 349,83; -291,000; -291,000;    0,000; 0,00000
 349,84;   28,000;   28,000;    0,000; 0,00000
 349,86;  202,000;  202,000;    0,000; 0,00000
 349,87; -518,000; -518,000;    0,000; 0,00000
 349,89; -400,000; -400,000;    0,000; 0,00000
 349,90;   13,000;   13,000;    0,000; 0,00000
 349,92;  332,000;  332,000;    0,000; 0,00000
 349,93; -481,000; -481,000;    0,000; 0,00000
 349,94; -233,000; -233,000;    0,000; 0,00000
 349,96;  438,000;  438,000;    0,000; 0,00000
 349,97;  240,000;  240,000;    0,000; 0,00000
 349,99; -484,000; -484,000;    0,000; 0,00000
 350,00; -223,000; -223,000;    0,000; 0,00000
 350,02; -366,000; -366,000;    0,000; 0,00000
 350,03;  125,000;  125,000;    0,000; 0,00000
 350,05; -800,000; -800,000;    0,000; 0,00000
 350,06; -426,000; -426,000;    0,000; 0,00000
 350,08; -263,000; -263,000;    0,000; 0,00000
 350,09;  429,000;  429,000;    0,000; 0,00000
 350,10; -201,000; -201,000;    0,000; 0,00000
 350,12;  668,000;  668,000;    0,000; 0,00000
 350,13; -191,000; -191,000;    0,000; 0,00000
 350,15; -100,000; -100,000;    0,000; 0,00000
 350,16; -767,000; -767,000;    0,000; 0,00000
 350,18; -125,000; -125,000;    0,000; 0,00000
 350,19; -192,000; -192,000;    0,000; 0,00000
 350,21;  166,000;  166,000;    0,000; 0,00000
 350,22; -706,000; -706,000;    0,000; 0,00000
 350,23; -728,000; -728,000;    0,000; 0,00000
 350,25;   62,000;   62,000;    0,000; 0,00000
 350,26;  794,000;  794,000;    0,000; 0,00000
 350,28; -421,000; -421,000;    0,000; 0,00000
 350,29;  107,000;  107,000;    0,000; 0,00000
 350,31; -272,000; -272,000;    0,000; 0,00000
 350,32;  109,000;  109,000;    0,000; 0,00000
 350,34; -805,000; -805,000;    0,000; 0,00000
 350,35;   63,000;   63,000;    0,000; 0,00000
 350,36; -154,000; -154,000;    0,000; 0,00000
 350,38;   66,000;   66,000;    0,000; 0,00000
 350,39; -593,000; -593,000;    0,000; 0,00000
 350,41; -497,000; -497,000;    0,000; 0,00000
 350,42;   88,000;   88,000;    0,000; 0,00000
 350,44;  389,000;  389,000;    0,000; 0,00000
 350,45; -465,000; -465,000;    0,000; 0,00000
 350,47;  -93,000;  -93,000;    0,000; 0,00000
 350,48; -492,000; -492,000;    0,000; 0,00000
 350,49; -238,000; -238,000;    0,000; 0,00000
 350,51; -571,000; -571,000;    0,000; 0,00000
 350,52; -489,000; -489,000;    0,000; 0,00000
 350,54;  118,000;  118,000;    0,000; 0,00000
 350,55;  118,000;  118,000;    0,000; 0,00000
 350,57; -919,000; -919,000;    0,000; 0,00000
 350,58;  926,000;  926,000;    0,000; 0,00000
 350,59; -170,000; -170,000;    0,000; 0,00000
 350,61;  203,000;  203,000;    0,000; 0,00000
 350,62;   91,000;   91,000;    0,000; 0,00000
 350,64; -298,000; -298,000;    0,000; 0,00000
 350,65; -273,000; -273,000;    0,000; 0,00000
 350,67;  501,000;  501,000;    0,000; 0,00000
 350,68; -748,000; -748,000;    0,000; 0,00000
 350,70; -295,000; -295,000;    0,000; 0,00000
 350,71;   63,000;   63,000;    0,000; 0,00000
 350,72; -153,000; -153,000;    0,000; 0,00000
 350,74; -705,000; -705,000;    0,000; 0,00000
 350,75; -134,000; -134,000;    0,000; 0,00000
 350,77; -541,000; -541,000;    0,000; 0,00000
 350,78; -171,000; -171,000;    0,000; 0,00000
 350,80; -482,000; -482,000;    0,000; 0,00000
 350,81;  833,000;  833,000;    0,000; 0,00000
 350,82; -139,000; -139,000;    0,000; 0,00000
 350,84;  633,000;  633,000;    0,000; 0,00000
 350,85; -123,000; -123,000;    0,000; 0,00000
 350,87; -361,000; -361,000;    0,000; 0,00000
 350,88; -163,000; -163,000;    0,000; 0,00000
 350,90; -210,000; -210,000;    0,000; 0,00000
 350,91; -391,000; -391,000;    0,000; 0,00000
 350,92; -166,000; -166,000;    0,000; 0,00000
 350,94;  -84,000;  -84,000;    0,000; 0,00000
 350,95;  -66,000;  -66,000;    0,000; 0,00000
 350,97; -305,000; -305,000;    0,000; 0,00000
 350,98; -530,000; -530,000;    0,000; 0,00000
 351,00;  -41,000;  -41,000;    0,000; 0,00000
 351,01;  654,000;  654,000;    0,000; 0,00000
 351,02; -719,000; -719,000;    0,000; 0,00000
 351,04; -263,000; -263,000;    0,000; 0,00000
 351,05; -379,000; -379,000;    0,000; 0,00000
 351,07;  437,000;  437,000;    0,000; 0,00000
 351,08; -509,000; -509,000;    0,000; 0,00000
 351,10;  -14,000;  -14,000;    0,000; 0,00000
 351,11;  121,000;  121,000;    0,000; 0,00000
 351,12; -138,000; -138,000;    0,000; 0,00000
 351,14; -361,000; -361,000;    0,000; 0,00000
 351,15;  629,000;  629,000;    0,000; 0,00000
 351,17;  -93,000;  -93,000;    0,000; 0,00000
 351,18; 1134,000; 1134,000;    0,000; 0,00000
 351,20; -701,000; -701,000;    0,000; 0,00000
 351,21; -273,000; -273,000;    0,000; 0,00000
 351,22; -323,000; -323,000;    0,000; 0,00000
 351,24;  147,000;  147,000;    0,000; 0,00000
 351,25; -445,000; -445,000;    0,000; 0,00000
 351,27; -253,000; -253,000;    0,000; 0,00000
 351,28; -104,000; -104,000;    0,000; 0,00000
 351,30;  384,000;  384,000;    0,000; 0,00000
 351,31;  -92,000;  -92,000;    0,000; 0,00000
 351,32;  -99,000;  -99,000;    0,000; 0,00000
 351,34;  230,000;  230,000;    0,000; 0,00000
 351,35;  958,000;  958,000;    0,000; 0,00000
 351,37; -530,000; -530,000;    0,000; 0,00000
 351,38; -184,000; -184,000;    0,000; 0,00000
 351,40;  -27,000;  -27,000;    0,000; 0,00000
 351,41; -289,000; -289,000;    0,000; 0,00000
 351,42; -613,000; -613,000;    0,000; 0,00000
 351,44; -267,000; -267,000;    0,000; 0,00000
 351,45;  284,000;  284,000;    0,000; 0,00000
 351,47;  -96,000;  -96,000;    0,000; 0,00000
 351,48; -752,000; -752,000;    0,000; 0,00000
 351,50; -479,000; -479,000;    0,000; 0,00000
 351,51;  573,000;  573,000;    0,000; 0,00000
 351,52;  584,000;  584,000;    0,000; 0,00000
 351,54; -670,000; -670,000;    0,000; 0,00000
 351,55;  424,000;  424,000;    0,000; 0,00000
 351,57;   87,000;   87,000;    0,000; 0,00000
 351,58;  -94,000;  -94,000;    0,000; 0,00000
 351,59;  -72,000;  -72,000;    0,000; 0,00000
 351,61;  451,000;  451,000;    0,000; 0,00000
 351,62; -468,000; -468,000;    0,000; 0,00000
 351,64;  387,000;  387,000;    0,000; 0,00000
 351,65; -433,000; -433,000;    0,000; 0,00000
 351,67;  160,000;  160,000;    0,000; 0,00000
 351,68; -484,000; -484,000;    0,000; 0,00000
 351,69; -520,000; -520,000;    0,000; 0,00000
 351,71; -354,000; -354,000;    0,000; 0,00000
 351,72; -357,000; -357,000;    0,000; 0,00000
 351,74; -162,000; -162,000;    0,000; 0,00000
 351,75; -144,000; -144,000;    0,000; 0,00000
 351,76; -484,000; -484,000;    0,000; 0,00000
 351,78; -541,000; -541,000;    0,000; 0,00000
 351,79;  -46,000;  -46,000;    0,000; 0,00000
 351,81; -289,000; -289,000;    0,000; 0,00000
 351,82; -216,000; -216,000;    0,000; 0,00000
 351,84; -466,000; -466,000;    0,000; 0,00000
 351,85;  184,000;  184,000;    0,000; 0,00000
 351,86;  -31,000;  -31,000;    0,000; 0,00000
 351,88; -378,000; -378,000;    0,000; 0,00000
 351,89; -358,000; -358,000;    0,000; 0,00000
 351,91;  -51,000;  -51,000;    0,000; 0,00000
 351,92; -180,000; -180,000;    0,000; 0,00000
 351,93; -817,000; -817,000;    0,000; 0,00000
 351,95;  -19,000;  -19,000;    0,000; 0,00000
 351,96;  127,000;  127,000;    0,000; 0,00000
 351,98;  326,000;  326,000;    0,000; 0,00000
 351,99; -540,000; -540,000;    0,000; 0,00000
 352,01; -497,000; -497,000;    0,000; 0,00000
 352,02; -213,000; -213,000;    0,000; 0,00000
 352,03; -247,000; -247,000;    0,000; 0,00000
 352,05;   63,000;   63,000;    0,000; 0,00000
 352,06; -528,000; -528,000;    0,000; 0,00000
 352,08; -528,000; -528,000;    0,000; 0,00000
 352,09;  175,000;  175,000;    0,000; 0,00000
 352,10; -345,000; -345,000;    0,000; 0,00000
 352,12; -119,000; -119,000;    0,000; 0,00000
 352,13;  -76,000;  -76,000;    0,000; 0,00000
 352,15;   38,000;   38,000;    0,000; 0,00000
 352,16; -268,000; -268,000;    0,000; 0,00000
 352,17; -549,000; -549,000;    0,000; 0,00000
 352,19;  181,000;  181,000;    0,000; 0,00000
 352,20;   -8,000;   -8,000;    0,000; 0,00000
 352,22; -357,000; -357,000;    0,000; 0,00000
 352,23; -360,000; -360,000;    0,000; 0,00000
 352,24; -648,000; -648,000;    0,000; 0,00000
 352,26;  556,000;  556,000;    0,000; 0,00000
 352,27; -658,000; -658,000;    0,000; 0,00000
 352,29;  653,000;  653,000;    0,000; 0,00000
 352,30;  282,000;  282,000;    0,000; 0,00000
 352,32; -196,000; -196,000;    0,000; 0,00000
 352,33; -524,000; -524,000;    0,000; 0,00000
 352,34; -425,000; -425,000;    0,000; 0,00000
 352,36; -185,000; -185,000;    0,000; 0,00000
 352,37;  -81,000;  -81,000;    0,000; 0,00000
 352,39; -438,000; -438,000;    0,000; 0,00000
 352,40; -444,000; -444,000;    0,000; 0,00000
 352,41; -162,000; -162,000;    0,000; 0,00000
 352,43;  207,000;  207,000;    0,000; 0,00000
 352,44; -608,000; -608,000;    0,000; 0,00000
 352,46; -423,000; -423,000;    0,000; 0,00000
 352,47; -382,000; -382,000;    0,000; 0,00000
 352,48;  -11,000;  -11,000;    0,000; 0,00000
 352,50; -366,000; -366,000;    0,000; 0,00000
 352,51; -518,000; -518,000;    0,000; 0,00000
 352,53; -585,000; -585,000;    0,000; 0,00000
 352,54; -251,000; -251,000;    0,000; 0,00000
 352,55;  129,000;  129,000;    0,000; 0,00000
 352,57; -309,000; -309,000;    0,000; 0,00000
 352,58; -401,000; -401,000;    0,000; 0,00000
 352,60;  -53,000;  -53,000;    0,000; 0,00000
 352,61;  131,000;  131,000;    0,000; 0,00000
 352,62; -456,000; -456,000;    0,000; 0,00000
 352,64; -426,000; -426,000;    0,000; 0,00000
 352,65; -133,000; -133,000;    0,000; 0,00000
 352,67; -910,000; -910,000;    0,000; 0,00000
 352,68; -263,000; -263,000;    0,000; 0,00000
 352,69; -194,000; -194,000;    0,000; 0,00000
 352,71;  115,000;  115,000;    0,000; 0,00000
 352,72; -422,000; -422,000;    0,000; 0,00000
 352,74; -597,000; -597,000;    0,000; 0,00000
 352,75; -295,000; -295,000;    0,000; 0,00000
 352,76;   13,000;   13,000;    0,000; 0,00000
 352,78; -514,000; -514,000;    0,000; 0,00000
 352,79; -341,000; -341,000;    0,000; 0,00000
 352,81; -344,000; -344,000;    0,000; 0,00000
 352,82;  490,000;  490,000;    0,000; 0,00000
 352,83; -603,000; -603,000;    0,000; 0,00000
 352,85;   21,000;   21,000;    0,000; 0,00000
 352,86; -202,000; -202,000;    0,000; 0,00000
 352,88;   68,000;   68,000;    0,000; 0,00000
 352,89; -395,000; -395,000;    0,000; 0,00000
 352,90; -314,000; -314,000;    0,000; 0,00000
 352,92;    3,000;    3,000;    0,000; 0,00000
 352,93; -397,000; -397,000;    0,000; 0,00000
 352,94; -538,000; -538,000;    0,000; 0,00000
 352,96; -264,000; -264,000;    0,000; 0,00000
 352,97; -485,000; -485,000;    0,000; 0,00000
 352,99; -235,000; -235,000;    0,000; 0,00000
 353,00;  238,000;  238,000;    0,000; 0,00000
 353,01;   39,000;   39,000;    0,000; 0,00000
 353,03;  456,000;  456,000;    0,000; 0,00000
 353,04; -429,000; -429,000;    0,000; 0,00000
 353,06; -467,000; -467,000;    0,000; 0,00000
 353,07; -443,000; -443,000;    0,000; 0,00000
 353,08;  -46,000;  -46,000;    0,000; 0,00000
 353,10;  -98,000;  -98,000;    0,000; 0,00000
 353,11; -130,000; -130,000;    0,000; 0,00000
 353,13; -334,000; -334,000;    0,000; 0,00000
 353,14;  349,000;  349,000;    0,000; 0,00000
 353,15; -229,000; -229,000;    0,000; 0,00000
 353,17;  -79,000;  -79,000;    0,000; 0,00000
 353,18;  -39,000;  -39,000;    0,000; 0,00000
 353,20; -221,000; -221,000;    0,000; 0,00000
 353,21;  138,000;  138,000;    0,000; 0,00000
 353,22; -514,000; -514,000;    0,000; 0,00000
 353,24; -182,000; -182,000;    0,000; 0,00000
 353,25; -107,000; -107,000;    0,000; 0,00000
 353,26; -305,000; -305,000;    0,000; 0,00000
 353,28; -413,000; -413,000;    0,000; 0,00000
 353,29; -419,000; -419,000;    0,000; 0,00000
 353,31; -185,000; -185,000;    0,000; 0,00000
 353,32;  -36,000;  -36,000;    0,000; 0,00000
 353,33; -494,000; -494,000;    0,000; 0,00000
 353,35; -153,000; -153,000;    0,000; 0,00000
 353,36; -163,000; -163,000;    0,000; 0,00000
 353,38;   -5,000;   -5,000;    0,000; 0,00000
 353,39; -410,000; -410,000;    0,000; 0,00000
 353,40;   39,000;   39,000;    0,000; 0,00000
 353,42; -344,000; -344,000;    0,000; 0,00000
 353,43;  622,000;  622,000;    0,000; 0,00000
 353,44; -230,000; -230,000;    0,000; 0,00000
 353,46; -405,000; -405,000;    0,000; 0,00000
 353,47; -394,000; -394,000;    0,000; 0,00000
 353,49;  -92,000;  -92,000;    0,000; 0,00000
 353,50; -525,000; -525,000;    0,000; 0,00000
 353,51; -293,000; -293,000;    0,000; 0,00000
 353,53;   16,000;   16,000;    0,000; 0,00000
 353,54; -339,000; -339,000;    0,000; 0,00000
 353,56;  -86,000;  -86,000;    0,000; 0,00000
 353,57; -125,000; -125,000;    0,000; 0,00000
 353,58; -124,000; -124,000;    0,000; 0,00000
 353,60;  220,000;  220,000;    0,000; 0,00000
 353,61; -421,000; -421,000;    0,000; 0,00000
 353,62;  179,000;  179,000;    0,000; 0,00000
 353,64;   88,000;   88,000;    0,000; 0,00000
 353,65; -448,000; -448,000;    0,000; 0,00000
 353,67; -236,000; -236,000;    0,000; 0,00000
 353,68; -217,000; -217,000;    0,000; 0,00000
 353,69; -258,000; -258,000;    0,000; 0,00000
 353,71;  -54,000;  -54,000;    0,000; 0,00000
 353,72;  -20,000;  -20,000;    0,000; 0,00000
 353,73; -294,000; -294,000;    0,000; 0,00000
 353,75; -142,000; -142,000;    0,000; 0,00000
 353,76; -203,000; -203,000;    0,000; 0,00000
 353,78; -527,000; -527,000;    0,000; 0,00000
 353,79; -236,000; -236,000;    0,000; 0,00000
 353,80;   -1,000;   -1,000;    0,000; 0,00000
 353,82;   -9,000;   -9,000;    0,000; 0,00000
 353,83; -707,000; -707,000;    0,000; 0,00000
 353,84; -322,000; -322,000;    0,000; 0,00000
 353,86; -610,000; -610,000;    0,000; 0,00000
 353,87;  201,000;  201,000;    0,000; 0,00000
 353,89; -198,000; -198,000;    0,000; 0,00000
 353,90;  384,000;  384,000;    0,000; 0,00000
 353,91; -217,000; -217,000;    0,000; 0,00000
 353,93; -467,000; -467,000;    0,000; 0,00000
 353,94; -467,000; -467,000;    0,000; 0,00000
 353,95; -357,000; -357,000;    0,000; 0,00000
 353,97;  440,000;  440,000;    0,000; 0,00000
 353,98; -167,000; -167,000;    0,000; 0,00000
 354,00;  -53,000;  -53,000;    0,000; 0,00000
 354,01; -192,000; -192,000;    0,000; 0,00000
 354,02;  -84,000;  -84,000;    0,000; 0,00000
 354,04; -474,000; -474,000;    0,000; 0,00000
 354,05; -583,000; -583,000;    0,000; 0,00000
 354,06; -277,000; -277,000;    0,000; 0,00000
 354,08; -286,000; -286,000;    0,000; 0,00000
 354,09; -308,000; -308,000;    0,000; 0,00000
 354,11; -411,000; -411,000;    0,000; 0,00000
 354,12; -130,000; -130,000;    0,000; 0,00000
 354,13; -128,000; -128,000;    0,000; 0,00000
 354,15;  -55,000;  -55,000;    0,000; 0,00000
 354,16;  230,000;  230,000;    0,000; 0,00000
 354,17;  720,000;  720,000;    0,000; 0,00000
 354,19; -799,000; -799,000;    0,000; 0,00000
 354,20; -388,000; -388,000;    0,000; 0,00000
 354,21; -447,000; -447,000;    0,000; 0,00000
 354,23;  289,000;  289,000;    0,000; 0,00000
 354,24; -620,000; -620,000;    0,000; 0,00000
 354,26; -152,000; -152,000;    0,000; 0,00000
 354,27; -554,000; -554,000;    0,000; 0,00000
 354,28; -456,000; -456,000;    0,000; 0,00000
 354,30;  191,000;  191,000;    0,000; 0,00000
 354,31;  774,000;  774,000;    0,000; 0,00000
 354,32; -562,000; -562,000;    0,000; 0,00000
 354,34; -239,000; -239,000;    0,000; 0,00000
 354,35;   20,000;   20,000;    0,000; 0,00000
 354,37;   -7,000;   -7,000;    0,000; 0,00000
 354,38; -383,000; -383,000;    0,000; 0,00000
 354,39; -451,000; -451,000;    0,000; 0,00000
 354,41; -147,000; -147,000;    0,000; 0,00000
 354,42;  298,000;  298,000;    0,000; 0,00000
 354,43;   29,000;   29,000;    0,000; 0,00000
 354,45; -272,000; -272,000;    0,000; 0,00000
 354,46; -119,000; -119,000;    0,000; 0,00000
 354,47; -206,000; -206,000;    0,000; 0,00000
 354,49;  327,000;  327,000;    0,000; 0,00000
 354,50; -460,000; -460,000;    0,000; 0,00000
 354,51; -200,000; -200,000;    0,000; 0,00000
 354,53; -348,000; -348,000;    0,000; 0,00000
 354,54; -647,000; -647,000;    0,000; 0,00000
 354,56; -215,000; -215,000;    0,000; 0,00000
 354,57;  384,000;  384,000;    0,000; 0,00000
 354,58; -482,000; -482,000;    0,000; 0,00000
 354,60; -318,000; -318,000;    0,000; 0,00000
 354,61; -114,000; -114,000;    0,000; 0,00000
 354,62;  199,000;  199,000;    0,000; 0,00000
 354,64;  346,000;  346,000;    0,000; 0,00000
 354,65;  -77,000;  -77,000;    0,000; 0,00000
 354,66;  341,000;  341,000;    0,000; 0,00000
 354,68;  623,000;  623,000;    0,000; 0,00000
 354,69; -325,000; -325,000;    0,000; 0,00000
 354,71; -253,000; -253,000;    0,000; 0,00000
 354,72; -145,000; -145,000;    0,000; 0,00000
 354,73; -189,000; -189,000;    0,000; 0,00000
 354,75;  221,000;  221,000;    0,000; 0,00000
 354,76; -450,000; -450,000;    0,000; 0,00000
 354,77; -517,000; -517,000;    0,000; 0,00000
 354,79;  134,000;  134,000;    0,000; 0,00000
 354,80;    1,000;    1,000;    0,000; 0,00000
 354,81; -269,000; -269,000;    0,000; 0,00000
 354,83; -125,000; -125,000;    0,000; 0,00000
 354,84;   92,000;   92,000;    0,000; 0,00000
 354,85; -241,000; -241,000;    0,000; 0,00000
 354,87;   41,000;   41,000;    0,000; 0,00000
 354,88;  139,000;  139,000;    0,000; 0,00000
 354,90; -312,000; -312,000;    0,000; 0,00000
 354,91;  408,000;  408,000;    0,000; 0,00000
 354,92; -492,000; -492,000;    0,000; 0,00000
 354,94; -402,000; -402,000;    0,000; 0,00000
 354,95; -104,000; -104,000;    0,000; 0,00000
 354,96; -254,000; -254,000;    0,000; 0,00000
 354,98; -376,000; -376,000;    0,000; 0,00000
 354,99; -112,000; -112,000;    0,000; 0,00000
 355,00; -183,000; -183,000;    0,000; 0,00000
 355,02; -220,000; -220,000;    0,000; 0,00000
 355,03; -361,000; -361,000;    0,000; 0,00000
 355,04;   -6,000;   -6,000;    0,000; 0,00000
 355,06;  114,000;  114,000;    0,000; 0,00000
 355,07; -108,000; -108,000;    0,000; 0,00000
 355,08; -408,000; -408,000;    0,000; 0,00000
 355,10; -187,000; -187,000;    0,000; 0,00000
 355,11;  343,000;  343,000;    0,000; 0,00000
 355,12;  615,000;  615,000;    0,000; 0,00000
 355,14; -486,000; -486,000;    0,000; 0,00000
 355,15; -400,000; -400,000;    0,000; 0,00000
 355,17; -299,000; -299,000;    0,000; 0,00000
 355,18;  621,000;  621,000;    0,000; 0,00000
 355,19; -288,000; -288,000;    0,000; 0,00000
 355,21; -155,000; -155,000;    0,000; 0,00000
 355,22; -596,000; -596,000;    0,000; 0,00000
 355,23; -144,000; -144,000;    0,000; 0,00000
 355,25; -307,000; -307,000;    0,000; 0,00000
 355,26;  -40,000;  -40,000;    0,000; 0,00000
 355,27; -593,000; -593,000;    0,000; 0,00000
 355,29;  234,000;  234,000;    0,000; 0,00000
 355,30;  330,000;  330,000;    0,000; 0,00000
 355,31; -350,000; -350,000;    0,000; 0,00000
 355,33;  610,000;  610,000;    0,000; 0,00000
 355,34;  -53,000;  -53,000;    0,000; 0,00000
 355,35; -473,000; -473,000;    0,000; 0,00000
 355,37;  267,000;  267,000;    0,000; 0,00000
 355,38; -381,000; -381,000;    0,000; 0,00000
 355,39;  365,000;  365,000;    0,000; 0,00000
 355,41; -374,000; -374,000;    0,000; 0,00000
 355,42;   -3,000;   -3,000;    0,000; 0,00000
 355,43; -172,000; -172,000;    0,000; 0,00000
 355,45;   39,000;   39,000;    0,000; 0,00000
 355,46; -527,000; -527,000;    0,000; 0,00000
 355,47;  301,000;  301,000;    0,000; 0,00000
 355,49; -703,000; -703,000;    0,000; 0,00000
 355,50; 1268,000; 1268,000;    0,000; 0,00000
 355,52; -318,000; -318,000;    0,000; 0,00000
 355,53; -386,000; -386,000;    0,000; 0,00000
 355,54; -441,000; -441,000;    0,000; 0,00000
 355,56;  322,000;  322,000;    0,000; 0,00000
 355,57; -106,000; -106,000;    0,000; 0,00000
 355,58; -349,000; -349,000;    0,000; 0,00000
 355,60; -181,000; -181,000;    0,000; 0,00000
 355,61;  133,000;  133,000;    0,000; 0,00000
 355,62; -403,000; -403,000;    0,000; 0,00000
 355,64; -357,000; -357,000;    0,000; 0,00000
 355,65; -316,000; -316,000;    0,000; 0,00000
 355,66;  471,000;  471,000;    0,000; 0,00000
 355,68; -121,000; -121,000;    0,000; 0,00000
 355,69;  282,000;  282,000;    0,000; 0,00000
 355,70; -330,000; -330,000;    0,000; 0,00000
 355,72; -378,000; -378,000;    0,000; 0,00000
 355,73; -698,000; -698,000;    0,000; 0,00000
 355,74; -265,000; -265,000;    0,000; 0,00000
 355,76; -233,000; -233,000;    0,000; 0,00000
 355,77;  -73,000;  -73,000;    0,000; 0,00000
 355,78; -531,000; -531,000;    0,000; 0,00000
 355,80;  -39,000;  -39,000;    0,000; 0,00000
 355,81; -148,000; -148,000;    0,000; 0,00000
 355,82; -277,000; -277,000;    0,000; 0,00000
 355,84;  -38,000;  -38,000;    0,000; 0,00000
 355,85;  -62,000;  -62,000;    0,000; 0,00000
 355,86; -167,000; -167,000;    0,000; 0,00000
 355,88; -168,000; -168,000;    0,000; 0,00000
 355,89; -236,000; -236,000;    0,000; 0,00000
 355,90; -123,000; -123,000;    0,000; 0,00000
 355,92; -231,000; -231,000;    0,000; 0,00000
 355,93; -200,000; -200,000;    0,000; 0,00000
 355,94; -358,000; -358,000;    0,000; 0,00000
 355,96;   74,000;   74,000;    0,000; 0,00000
 355,97; -249,000; -249,000;    0,000; 0,00000
 355,98; -484,000; -484,000;    0,000; 0,00000
 356,00; -410,000; -410,000;    0,000; 0,00000
 356,01; -307,000; -307,000;    0,000; 0,00000
 356,02;  225,000;  225,000;    0,000; 0,00000
 356,04; -273,000; -273,000;    0,000; 0,00000
 356,05;  248,000;  248,000;    0,000; 0,00000
 356,06; -161,000; -161,000;    0,000; 0,00000
 356,08; -419,000; -419,000;    0,000; 0,00000
 356,09; -366,000; -366,000;    0,000; 0,00000
 356,10; -756,000; -756,000;    0,000; 0,00000
 356,12;  110,000;  110,000;    0,000; 0,00000
 356,13; -420,000; -420,000;    0,000; 0,00000
 356,14; -144,000; -144,000;    0,000; 0,00000
 356,16; -195,000; -195,000;    0,000; 0,00000
 356,17; -148,000; -148,000;    0,000; 0,00000
 356,18; -245,000; -245,000;    0,000; 0,00000
 356,20;   36,000;   36,000;    0,000; 0,00000
 356,21;  400,000;  400,000;    0,000; 0,00000
 356,22; -306,000; -306,000;    0,000; 0,00000
 356,24; -196,000; -196,000;    0,000; 0,00000
 356,25;  -85,000;  -85,000;    0,000; 0,00000
 356,26; -170,000; -170,000;    0,000; 0,00000
 356,28; -424,000; -424,000;    0,000; 0,00000
 356,29;  141,000;  141,000;    0,000; 0,00000
 356,30;   -6,000;   -6,000;    0,000; 0,00000
 356,31; -336,000; -336,000;    0,000; 0,00000
 356,33; -225,000; -225,000;    0,000; 0,00000
 356,34; -590,000; -590,000;    0,000; 0,00000
 356,35; -130,000; -130,000;    0,000; 0,00000
 356,37; -435,000; -435,000;    0,000; 0,00000
 356,38;  -56,000;  -56,000;    0,000; 0,00000
 356,39;  320,000;  320,000;    0,000; 0,00000
 356,41; -213,000; -213,000;    0,000; 0,00000
 356,42;   19,000;   19,000;    0,000; 0,00000
 356,43;  222,000;  222,000;    0,000; 0,00000
 356,45; -746,000; -746,000;    0,000; 0,00000
 356,46; -226,000; -226,000;    0,000; 0,00000
 356,47; -450,000; -450,000;    0,000; 0,00000
 356,49; -183,000; -183,000;    0,000; 0,00000
 356,50;  125,000;  125,000;    0,000; 0,00000
 356,51;  113,000;  113,000;    0,000; 0,00000
 356,53; -319,000; -319,000;    0,000; 0,00000
 356,54; -239,000; -239,000;    0,000; 0,00000
 356,55; -591,000; -591,000;    0,000; 0,00000
 356,57;   62,000;   62,000;    0,000; 0,00000
 356,58;  753,000;  753,000;    0,000; 0,00000
 356,59; -214,000; -214,000;    0,000; 0,00000
 356,61; -275,000; -275,000;    0,000; 0,00000
 356,62; -474,000; -474,000;    0,000; 0,00000
 356,63; -743,000; -743,000;    0,000; 0,00000
 356,65;  -68,000;  -68,000;    0,000; 0,00000
 356,66;   53,000;   53,000;    0,000; 0,00000
 356,67; -292,000; -292,000;    0,000; 0,00000
 356,68; -689,000; -689,000;    0,000; 0,00000
 356,70;  318,000;  318,000;    0,000; 0,00000
 356,71; -186,000; -186,000;    0,000; 0,00000
 356,72; -180,000; -180,000;    0,000; 0,00000
 356,74; -230,000; -230,000;    0,000; 0,00000
 356,75;  177,000;  177,000;    0,000; 0,00000
 356,76;  -11,000;  -11,000;    0,000; 0,00000
 356,78;   93,000;   93,000;    0,000; 0,00000
 356,79; -770,000; -770,000;    0,000; 0,00000
 356,80; -123,000; -123,000;    0,000; 0,00000
 356,82;   79,000;   79,000;    0,000; 0,00000
 356,83;  204,000;  204,000;    0,000; 0,00000
 356,84; -465,000; -465,000;    0,000; 0,00000
 356,86; -469,000; -469,000;    0,000; 0,00000
 356,87; -145,000; -145,000;    0,000; 0,00000
 356,88;  323,000;  323,000;    0,000; 0,00000
 356,89; -250,000; -250,000;    0,000; 0,00000
 356,91; -505,000; -505,000;    0,000; 0,00000
 356,92; -618,000; -618,000;    0,000; 0,00000
 356,93;  761,000;  761,000;    0,000; 0,00000
 356,95; -614,000; -614,000;    0,000; 0,00000
 356,96;  821,000;  821,000;    0,000; 0,00000
 356,97;  482,000;  482,000;    0,000; 0,00000
 356,99; -345,000; -345,000;    0,000; 0,00000
 357,00; -113,000; -113,000;    0,000; 0,00000
 357,01; -505,000; -505,000;    0,000; 0,00000
 357,03;  -87,000;  -87,000;    0,000; 0,00000
 357,04; -231,000; -231,000;    0,000; 0,00000
 357,05;   48,000;   48,000;    0,000; 0,00000
 357,07;  421,000;  421,000;    0,000; 0,00000
 357,08; -360,000; -360,000;    0,000; 0,00000
 357,09;   24,000;   24,000;    0,000; 0,00000
 357,10;    1,000;    1,000;    0,000; 0,00000
 357,12; -368,000; -368,000;    0,000; 0,00000
 357,13; -483,000; -483,000;    0,000; 0,00000
 357,14;  232,000;  232,000;    0,000; 0,00000
 357,16; -602,000; -602,000;    0,000; 0,00000
 357,17; -332,000; -332,000;    0,000; 0,00000
 357,18; -730,000; -730,000;    0,000; 0,00000
 357,20; -112,000; -112,000;    0,000; 0,00000
 357,21;  142,000;  142,000;    0,000; 0,00000
 357,22; -463,000; -463,000;    0,000; 0,00000
 357,24; -554,000; -554,000;    0,000; 0,00000
 357,25;  173,000;  173,000;    0,000; 0,00000
 357,26;  108,000;  108,000;    0,000; 0,00000
 357,27;   -9,000;   -9,000;    0,000; 0,00000
 357,29;  217,000;  217,000;    0,000; 0,00000
 357,30; -161,000; -161,000;    0,000; 0,00000
 357,31;  -11,000;  -11,000;    0,000; 0,00000
 357,33; -658,000; -658,000;    0,000; 0,00000
 357,34;   16,000;   16,000;    0,000; 0,00000
 357,35; -360,000; -360,000;    0,000; 0,00000
 357,37;  -10,000;  -10,000;    0,000; 0,00000
 357,38; -538,000; -538,000;    0,000; 0,00000
 357,39; -321,000; -321,000;    0,000; 0,00000
 357,40;   46,000;   46,000;    0,000; 0,00000
 357,42;    4,000;    4,000;    0,000; 0,00000
 357,43; -311,000; -311,000;    0,000; 0,00000
 357,44; -269,000; -269,000;    0,000; 0,00000
 357,46;  -83,000;  -83,000;    0,000; 0,00000
 357,47;   -9,000;   -9,000;    0,000; 0,00000
 357,48; -284,000; -284,000;    0,000; 0,00000
 357,50; -525,000; -525,000;    0,000; 0,00000
 357,51;  109,000;  109,000;    0,000; 0,00000
 357,52; -201,000; -201,000;    0,000; 0,00000
 357,53; -319,000; -319,000;    0,000; 0,00000
 357,55; -134,000; -134,000;    0,000; 0,00000
 357,56;  367,000;  367,000;    0,000; 0,00000
 357,57;  147,000;  147,000;    0,000; 0,00000
 357,59;  413,000;  413,000;    0,000; 0,00000
 357,60;  217,000;  217,000;    0,000; 0,00000
 357,61; -113,000; -113,000;    0,000; 0,00000
 357,63; -188,000; -188,000;    0,000; 0,00000
 357,64; -395,000; -395,000;    0,000; 0,00000
 357,65; -415,000; -415,000;    0,000; 0,00000
 357,66; -432,000; -432,000;    0,000; 0,00000
 357,68; -494,000; -494,000;    0,000; 0,00000
 357,69; -218,000; -218,000;    0,000; 0,00000
 357,70; -401,000; -401,000;    0,000; 0,00000
 357,72; -606,000; -606,000;    0,000; 0,00000
 357,73; -784,000; -784,000;    0,000; 0,00000
 357,74; -281,000; -281,000;    0,000; 0,00000
 357,75; -191,000; -191,000;    0,000; 0,00000
 357,77; -277,000; -277,000;    0,000; 0,00000
 357,78; -659,000; -659,000;    0,000; 0,00000
 357,79; -250,000; -250,000;    0,000; 0,00000
 357,81;  242,000;  242,000;    0,000; 0,00000
 357,82; -142,000; -142,000;    0,000; 0,00000
 357,83;  244,000;  244,000;    0,000; 0,00000
 357,85;  260,000;  260,000;    0,000; 0,00000
 357,86; -395,000; -395,000;    0,000; 0,00000
 357,87;  137,000;  137,000;    0,000; 0,00000
 357,88; -439,000; -439,000;    0,000; 0,00000
 357,90;  116,000;  116,000;    0,000; 0,00000
 357,91;  242,000;  242,000;    0,000; 0,00000
 357,92; -464,000; -464,000;    0,000; 0,00000
 357,94; -207,000; -207,000;    0,000; 0,00000
 357,95;  678,000;  678,000;    0,000; 0,00000
 357,96;   32,000;   32,000;    0,000; 0,00000
 357,97;  619,000;  619,000;    0,000; 0,00000
 357,99; -246,000; -246,000;    0,000; 0,00000
 358,00;  166,000;  166,000;    0,000; 0,00000
 358,01; -637,000; -637,000;    0,000; 0,00000
 358,03; -624,000; -624,000;    0,000; 0,00000
 358,04;  322,000;  322,000;    0,000; 0,00000
 358,05; -143,000; -143,000;    0,000; 0,00000
 358,06;  185,000;  185,000;    0,000; 0,00000
 358,08;  151,000;  151,000;    0,000; 0,00000
 358,09; -418,000; -418,000;    0,000; 0,00000
 358,10;   11,000;   11,000;    0,000; 0,00000
 358,12;   27,000;   27,000;    0,000; 0,00000
 358,13; -128,000; -128,000;    0,000; 0,00000
 358,14;  -22,000;  -22,000;    0,000; 0,00000
 358,15;  -17,000;  -17,000;    0,000; 0,00000
 358,17; -280,000; -280,000;    0,000; 0,00000
 358,18; -267,000; -267,000;    0,000; 0,00000
 358,19; -504,000; -504,000;    0,000; 0,00000
 358,21;  121,000;  121,000;    0,000; 0,00000
 358,22; -268,000; -268,000;    0,000; 0,00000
 358,23;   18,000;   18,000;    0,000; 0,00000
 358,24; -343,000; -343,000;    0,000; 0,00000
 358,26;  394,000;  394,000;    0,000; 0,00000
 358,27;   17,000;   17,000;    0,000; 0,00000
 358,28; -128,000; -128,000;    0,000; 0,00000
 358,30;  251,000;  251,000;    0,000; 0,00000
 358,31; -120,000; -120,000;    0,000; 0,00000
 358,32;   81,000;   81,000;    0,000; 0,00000
 358,33;   82,000;   82,000;    0,000; 0,00000
 358,35; -396,000; -396,000;    0,000; 0,00000
 358,36; -117,000; -117,000;    0,000; 0,00000
 358,37; -280,000; -280,000;    0,000; 0,00000
 358,39;   94,000;   94,000;    0,000; 0,00000
 358,40; -233,000; -233,000;    0,000; 0,00000
 358,41; -252,000; -252,000;    0,000; 0,00000
 358,42;   54,000;   54,000;    0,000; 0,00000
 358,44; -212,000; -212,000;    0,000; 0,00000
 358,45;  -79,000;  -79,000;    0,000; 0,00000
 358,46;  -19,000;  -19,000;    0,000; 0,00000
 358,48; -576,000; -576,000;    0,000; 0,00000
 358,49;  307,000;  307,000;    0,000; 0,00000
 358,50;  114,000;  114,000;    0,000; 0,00000
 358,51;  -24,000;  -24,000;    0,000; 0,00000
 358,53; -461,000; -461,000;    0,000; 0,00000
 358,54; -348,000; -348,000;    0,000; 0,00000
 358,55; -506,000; -506,000;    0,000; 0,00000
 358,56; -467,000; -467,000;    0,000; 0,00000
 358,58;   68,000;   68,000;    0,000; 0,00000
 358,59;  325,000;  325,000;    0,000; 0,00000
 358,60; -484,000; -484,000;    0,000; 0,00000
 358,62; -343,000; -343,000;    0,000; 0,00000
 358,63; -307,000; -307,000;    0,000; 0,00000
 358,64; -214,000; -214,000;    0,000; 0,00000
 358,65; -201,000; -201,000;    0,000; 0,00000
 358,67; -152,000; -152,000;    0,000; 0,00000
 358,68; -709,000; -709,000;    0,000; 0,00000
 358,69; -126,000; -126,000;    0,000; 0,00000
 358,70; -383,000; -383,000;    0,000; 0,00000
 358,72; -273,000; -273,000;    0,000; 0,00000
 358,73;  180,000;  180,000;    0,000; 0,00000
 358,74; -303,000; -303,000;    0,000; 0,00000
 358,76; -139,000; -139,000;    0,000; 0,00000
 358,77; -334,000; -334,000;    0,000; 0,00000
 358,78; -624,000; -624,000;    0,000; 0,00000
 358,79;  574,000;  574,000;    0,000; 0,00000
 358,81; -605,000; -605,000;    0,000; 0,00000
 358,82; -340,000; -340,000;    0,000; 0,00000
 358,83; -301,000; -301,000;    0,000; 0,00000
 358,84; -322,000; -322,000;    0,000; 0,00000
 358,86;  -99,000;  -99,000;    0,000; 0,00000
 358,87; -447,000; -447,000;    0,000; 0,00000
 358,88; -186,000; -186,000;    0,000; 0,00000
 358,90; -305,000; -305,000;    0,000; 0,00000
 358,91; -445,000; -445,000;    0,000; 0,00000
 358,92;  144,000;  144,000;    0,000; 0,00000
 358,93; -279,000; -279,000;    0,000; 0,00000
 358,95; -211,000; -211,000;    0,000; 0,00000
 358,96; -552,000; -552,000;    0,000; 0,00000
 358,97; -251,000; -251,000;    0,000; 0,00000
 358,98; -152,000; -152,000;    0,000; 0,00000
 359,00;  776,000;  776,000;    0,000; 0,00000
 359,01;  171,000;  171,000;    0,000; 0,00000
 359,02; -280,000; -280,000;    0,000; 0,00000
 359,03;   85,000;   85,000;    0,000; 0,00000
 359,05; -280,000; -280,000;    0,000; 0,00000
 359,06; -386,000; -386,000;    0,000; 0,00000
 359,07; -241,000; -241,000;    0,000; 0,00000
 359,09; -440,000; -440,000;    0,000; 0,00000
 359,10;  458,000;  458,000;    0,000; 0,00000
 359,11;  292,000;  292,000;    0,000; 0,00000
 359,12; -323,000; -323,000;    0,000; 0,00000
 359,14; -576,000; -576,000;    0,000; 0,00000
 359,15;  -62,000;  -62,000;    0,000; 0,00000
 359,16; -431,000; -431,000;    0,000; 0,00000
 359,17; -538,000; -538,000;    0,000; 0,00000
 359,19;   41,000;   41,000;    0,000; 0,00000
 359,20;  152,000;  152,000;    0,000; 0,00000
 359,21; -323,000; -323,000;    0,000; 0,00000
 359,22;   50,000;   50,000;    0,000; 0,00000
 359,24; -367,000; -367,000;    0,000; 0,00000
 359,25;   76,000;   76,000;    0,000; 0,00000
 359,26; -370,000; -370,000;    0,000; 0,00000
 359,27; -250,000; -250,000;    0,000; 0,00000
 359,29; -199,000; -199,000;    0,000; 0,00000
 359,30; -366,000; -366,000;    0,000; 0,00000
 359,31; -388,000; -388,000;    0,000; 0,00000
 359,33; -589,000; -589,000;    0,000; 0,00000
 359,34;   71,000;   71,000;    0,000; 0,00000
 359,35;  -62,000;  -62,000;    0,000; 0,00000
 359,36;  149,000;  149,000;    0,000; 0,00000
 359,38; -402,000; -402,000;    0,000; 0,00000
 359,39; -516,000; -516,000;    0,000; 0,00000
 359,40; -485,000; -485,000;    0,000; 0,00000
 359,41; -281,000; -281,000;    0,000; 0,00000
 359,43;   56,000;   56,000;    0,000; 0,00000
 359,44; -105,000; -105,000;    0,000; 0,00000
 359,45;  -64,000;  -64,000;    0,000; 0,00000
 359,46; -286,000; -286,000;    0,000; 0,00000
 359,48; -623,000; -623,000;    0,000; 0,00000
 359,49; -306,000; -306,000;    0,000; 0,00000
 359,50; -221,000; -221,000;    0,000; 0,00000
 359,51; -340,000; -340,000;    0,000; 0,00000
 359,53; -339,000; -339,000;    0,000; 0,00000
 359,54; -299,000; -299,000;    0,000; 0,00000
 359,55;   47,000;   47,000;    0,000; 0,00000
 359,56; -628,000; -628,000;    0,000; 0,00000
 359,58;  -78,000;  -78,000;    0,000; 0,00000
 359,59; -385,000; -385,000;    0,000; 0,00000
 359,60;  -54,000;  -54,000;    0,000; 0,00000
 359,61; -356,000; -356,000;    0,000; 0,00000
 359,63; -284,000; -284,000;    0,000; 0,00000
 359,64; -487,000; -487,000;    0,000; 0,00000
 359,65;  185,000;  185,000;    0,000; 0,00000
 359,66;   55,000;   55,000;    0,000; 0,00000
 359,68; -622,000; -622,000;    0,000; 0,00000
 359,69; -480,000; -480,000;    0,000; 0,00000
 359,70;  182,000;  182,000;    0,000; 0,00000
 359,71; -501,000; -501,000;    0,000; 0,00000
 359,73; -381,000; -381,000;    0,000; 0,00000
 359,74; -281,000; -281,000;    0,000; 0,00000
 359,75;  -70,000;  -70,000;    0,000; 0,00000
 359,76; -121,000; -121,000;    0,000; 0,00000
 359,78;  267,000;  267,000;    0,000; 0,00000
 359,79; -178,000; -178,000;    0,000; 0,00000
 359,80; -559,000; -559,000;    0,000; 0,00000
 359,81; -519,000; -519,000;    0,000; 0,00000
 359,83; -119,000; -119,000;    0,000; 0,00000
 359,84; -534,000; -534,000;    0,000; 0,00000
 359,85; -117,000; -117,000;    0,000; 0,00000
 359,86; -357,000; -357,000;    0,000; 0,00000
 359,88; -360,000; -360,000;    0,000; 0,00000
 359,89;  195,000;  195,000;    0,000; 0,00000
 359,90;  907,000;  907,000;    0,000; 0,00000
 359,91;   50,000;   50,000;    0,000; 0,00000
 359,93;  483,000;  483,000;    0,000; 0,00000
 359,94; -618,000; -618,000;    0,000; 0,00000
 359,95; -325,000; -325,000;    0,000; 0,00000
 359,96; -334,000; -334,000;    0,000; 0,00000
 359,98; -363,000; -363,000;    0,000; 0,00000
 359,99; -768,000; -768,000;    0,000; 0,00000
 360,00;  669,000;  669,000;    0,000; 0,00000
 360,01; -484,000; -484,000;    0,000; 0,00000
 360,03;  -11,000;  -11,000;    0,000; 0,00000
 360,04;  -25,000;  -25,000;    0,000; 0,00000
 360,05;   64,000;   64,000;    0,000; 0,00000
 360,06; -439,000; -439,000;    0,000; 0,00000
 360,08;  910,000;  910,000;    0,000; 0,00000
 360,09; -479,000; -479,000;    0,000; 0,00000
 360,10; -363,000; -363,000;    0,000; 0,00000
 360,11;  -80,000;  -80,000;    0,000; 0,00000
 360,13; -474,000; -474,000;    0,000; 0,00000
 360,14; -459,000; -459,000;    0,000; 0,00000
 360,15;   52,000;   52,000;    0,000; 0,00000
 360,16;  -33,000;  -33,000;    0,000; 0,00000
 360,17; -200,000; -200,000;    0,000; 0,00000
 360,19; -681,000; -681,000;    0,000; 0,00000
 360,20; -264,000; -264,000;    0,000; 0,00000
 360,21; -462,000; -462,000;    0,000; 0,00000
 360,22;  239,000;  239,000;    0,000; 0,00000
 360,24;  170,000;  170,000;    0,000; 0,00000
 360,25; -531,000; -531,000;    0,000; 0,00000
 360,26; -228,000; -228,000;    0,000; 0,00000
 360,27;  657,000;  657,000;    0,000; 0,00000
 360,29; -558,000; -558,000;    0,000; 0,00000
 360,30;  -65,000;  -65,000;    0,000; 0,00000
 360,31; -143,000; -143,000;    0,000; 0,00000
 360,32; -314,000; -314,000;    0,000; 0,00000
 360,34; -241,000; -241,000;    0,000; 0,00000
 360,35; -231,000; -231,000;    0,000; 0,00000
 360,36;   88,000;   88,000;    0,000; 0,00000
 360,37;  196,000;  196,000;    0,000; 0,00000
 360,39; -469,000; -469,000;    0,000; 0,00000
 360,40; -441,000; -441,000;    0,000; 0,00000
 360,41; -773,000; -773,000;    0,000; 0,00000
 360,42; -330,000; -330,000;    0,000; 0,00000
 360,43;  -68,000;  -68,000;    0,000; 0,00000
 360,45; -271,000; -271,000;    0,000; 0,00000
 360,46; -158,000; -158,000;    0,000; 0,00000
 360,47; -545,000; -545,000;    0,000; 0,00000
 360,48; -217,000; -217,000;    0,000; 0,00000
 360,50; -364,000; -364,000;    0,000; 0,00000
 360,51; -165,000; -165,000;    0,000; 0,00000
 360,52;   97,000;   97,000;    0,000; 0,00000
 360,53; -308,000; -308,000;    0,000; 0,00000
 360,55; -167,000; -167,000;    0,000; 0,00000
 360,56; -468,000; -468,000;    0,000; 0,00000
 360,57;  129,000;  129,000;    0,000; 0,00000
 360,58;  -77,000;  -77,000;    0,000; 0,00000
 360,59; -146,000; -146,000;    0,000; 0,00000
 360,61;   23,000;   23,000;    0,000; 0,00000
 360,62;  124,000;  124,000;    0,000; 0,00000
 360,63;  -49,000;  -49,000;    0,000; 0,00000
 360,64;  203,000;  203,000;    0,000; 0,00000
 360,66; -307,000; -307,000;    0,000; 0,00000
 360,67; -291,000; -291,000;    0,000; 0,00000
 360,68;  222,000;  222,000;    0,000; 0,00000
 360,69; -275,000; -275,000;    0,000; 0,00000
 360,71; -304,000; -304,000;    0,000; 0,00000
 360,72;  450,000;  450,000;    0,000; 0,00000
 360,73; -627,000; -627,000;    0,000; 0,00000
 360,74; -307,000; -307,000;    0,000; 0,00000
 360,75; -363,000; -363,000;    0,000; 0,00000
 360,77;  -56,000;  -56,000;    0,000; 0,00000
 360,78; -397,000; -397,000;    0,000; 0,00000
 360,79; -526,000; -526,000;    0,000; 0,00000
 360,80; -279,000; -279,000;    0,000; 0,00000
 360,82; -298,000; -298,000;    0,000; 0,00000
 360,83; -410,000; -410,000;    0,000; 0,00000
 360,84; -149,000; -149,000;    0,000; 0,00000
 360,85; -499,000; -499,000;    0,000; 0,00000
 360,86; -128,000; -128,000;    0,000; 0,00000
 360,88; -595,000; -595,000;    0,000; 0,00000
 360,89; -353,000; -353,000;    0,000; 0,00000
 360,90; -404,000; -404,000;    0,000; 0,00000
 360,91; -244,000; -244,000;    0,000; 0,00000
 360,93; -152,000; -152,000;    0,000; 0,00000
 360,94; -170,000; -170,000;    0,000; 0,00000
 360,95; -402,000; -402,000;    0,000; 0,00000
 360,96; -164,000; -164,000;    0,000; 0,00000
 360,97;  238,000;  238,000;    0,000; 0,00000
 360,99;  126,000;  126,000;    0,000; 0,00000
 361,00;   59,000;   59,000;    0,000; 0,00000
 361,01; -425,000; -425,000;    0,000; 0,00000
 361,02; -490,000; -490,000;    0,000; 0,00000
 361,04; -451,000; -451,000;    0,000; 0,00000
 361,05; -371,000; -371,000;    0,000; 0,00000
 361,06;  347,000;  347,000;    0,000; 0,00000
 361,07; -272,000; -272,000;    0,000; 0,00000
 361,08; -447,000; -447,000;    0,000; 0,00000
 361,10; -303,000; -303,000;    0,000; 0,00000
 361,11; -222,000; -222,000;    0,000; 0,00000
 361,12;  -14,000;  -14,000;    0,000; 0,00000
 361,13; -444,000; -444,000;    0,000; 0,00000
 361,15;  141,000;  141,000;    0,000; 0,00000
 361,16; -114,000; -114,000;    0,000; 0,00000
 361,17; -371,000; -371,000;    0,000; 0,00000
 361,18; -623,000; -623,000;    0,000; 0,00000
 361,19; -264,000; -264,000;    0,000; 0,00000
 361,21; -176,000; -176,000;    0,000; 0,00000
 361,22; -693,000; -693,000;    0,000; 0,00000
 361,23; -390,000; -390,000;    0,000; 0,00000
 361,24; -107,000; -107,000;    0,000; 0,00000
 361,26; -326,000; -326,000;    0,000; 0,00000
 361,27;  -90,000;  -90,000;    0,000; 0,00000
 361,28; -525,000; -525,000;    0,000; 0,00000
 361,29; -287,000; -287,000;    0,000; 0,00000
 361,30; -346,000; -346,000;    0,000; 0,00000
 361,32; -255,000; -255,000;    0,000; 0,00000
 361,33;  -93,000;  -93,000;    0,000; 0,00000
 361,34; -226,000; -226,000;    0,000; 0,00000
 361,35;  116,000;  116,000;    0,000; 0,00000
 361,36;  129,000;  129,000;    0,000; 0,00000
 361,38; -116,000; -116,000;    0,000; 0,00000
 361,39; -368,000; -368,000;    0,000; 0,00000
 361,40; -419,000; -419,000;    0,000; 0,00000
 361,41; -138,000; -138,000;    0,000; 0,00000
 361,42; -294,000; -294,000;    0,000; 0,00000
 361,44;  500,000;  500,000;    0,000; 0,00000
 361,45;   44,000;   44,000;    0,000; 0,00000
 361,46; -449,000; -449,000;    0,000; 0,00000
 361,47; -231,000; -231,000;    0,000; 0,00000
 361,49; -287,000; -287,000;    0,000; 0,00000
 361,50; -280,000; -280,000;    0,000; 0,00000
 361,51; -608,000; -608,000;    0,000; 0,00000
 361,52; -223,000; -223,000;    0,000; 0,00000
 361,53; -215,000; -215,000;    0,000; 0,00000
 361,55; -358,000; -358,000;    0,000; 0,00000
 361,56; -174,000; -174,000;    0,000; 0,00000
 361,57; -490,000; -490,000;    0,000; 0,00000
 361,58; -455,000; -455,000;    0,000; 0,00000
 361,59; -354,000; -354,000;    0,000; 0,00000
 361,61; -415,000; -415,000;    0,000; 0,00000
 361,62;  317,000;  317,000;    0,000; 0,00000
 361,63; -371,000; -371,000;    0,000; 0,00000
 361,64;  -64,000;  -64,000;    0,000; 0,00000
 361,65;  205,000;  205,000;    0,000; 0,00000
 361,67; -464,000; -464,000;    0,000; 0,00000
 361,68; -153,000; -153,000;    0,000; 0,00000
 361,69;  492,000;  492,000;    0,000; 0,00000
 361,70; -302,000; -302,000;    0,000; 0,00000
 361,71;  -60,000;  -60,000;    0,000; 0,00000
 361,73;  156,000;  156,000;    0,000; 0,00000
 361,74;  -29,000;  -29,000;    0,000; 0,00000
 361,75; -220,000; -220,000;    0,000; 0,00000
 361,76; -133,000; -133,000;    0,000; 0,00000
 361,77;  -50,000;  -50,000;    0,000; 0,00000
 361,79;   16,000;   16,000;    0,000; 0,00000
 361,80; -624,000; -624,000;    0,000; 0,00000
 361,81; -240,000; -240,000;    0,000; 0,00000
 361,82; -256,000; -256,000;    0,000; 0,00000
 361,83; -141,000; -141,000;    0,000; 0,00000
 361,85;   98,000;   98,000;    0,000; 0,00000
 361,86; -606,000; -606,000;    0,000; 0,00000
 361,87; -370,000; -370,000;    0,000; 0,00000
 361,88;  -96,000;  -96,000;    0,000; 0,00000
 361,89; -182,000; -182,000;    0,000; 0,00000
 361,91;   81,000;   81,000;    0,000; 0,00000
 361,92; -321,000; -321,000;    0,000; 0,00000
 361,93; -163,000; -163,000;    0,000; 0,00000
 361,94; -482,000; -482,000;    0,000; 0,00000
 361,95; -383,000; -383,000;    0,000; 0,00000
 361,97; -509,000; -509,000;    0,000; 0,00000
 361,98;  131,000;  131,000;    0,000; 0,00000
 361,99; -307,000; -307,000;    0,000; 0,00000
 362,00; -201,000; -201,000;    0,000; 0,00000
 362,01; -435,000; -435,000;    0,000; 0,00000
 362,03;   13,000;   13,000;    0,000; 0,00000
 362,04; -330,000; -330,000;    0,000; 0,00000
 362,05;  382,000;  382,000;    0,000; 0,00000
 362,06; -464,000; -464,000;    0,000; 0,00000
 362,07; -240,000; -240,000;    0,000; 0,00000
 362,09; -559,000; -559,000;    0,000; 0,00000
 362,10; -291,000; -291,000;    0,000; 0,00000
 362,11; -217,000; -217,000;    0,000; 0,00000
 362,12;  -40,000;  -40,000;    0,000; 0,00000
 362,13; -410,000; -410,000;    0,000; 0,00000
 362,15;  -28,000;  -28,000;    0,000; 0,00000
 362,16; -487,000; -487,000;    0,000; 0,00000
 362,17; -107,000; -107,000;    0,000; 0,00000
 362,18; -626,000; -626,000;    0,000; 0,00000
 362,19;  193,000;  193,000;    0,000; 0,00000
 362,21; -484,000; -484,000;    0,000; 0,00000
 362,22;   90,000;   90,000;    0,000; 0,00000
 362,23; -459,000; -459,000;    0,000; 0,00000
 362,24;  123,000;  123,000;    0,000; 0,00000
 362,25; -529,000; -529,000;    0,000; 0,00000
 362,27;  468,000;  468,000;    0,000; 0,00000
 362,28;  181,000;  181,000;    0,000; 0,00000
 362,29; -264,000; -264,000;    0,000; 0,00000
 362,30;  -14,000;  -14,000;    0,000; 0,00000
 362,31; -253,000; -253,000;    0,000; 0,00000
 362,32; -254,000; -254,000;    0,000; 0,00000
 362,34; -108,000; -108,000;    0,000; 0,00000
 362,35; -118,000; -118,000;    0,000; 0,00000
 362,36; -165,000; -165,000;    0,000; 0,00000
 362,37;   78,000;   78,000;    0,000; 0,00000
 362,38; -167,000; -167,000;    0,000; 0,00000
 362,40;  100,000;  100,000;    0,000; 0,00000
 362,41; -273,000; -273,000;    0,000; 0,00000
 362,42; -272,000; -272,000;    0,000; 0,00000
 362,43; -295,000; -295,000;    0,000; 0,00000
 362,44; -421,000; -421,000;    0,000; 0,00000
 362,46; -416,000; -416,000;    0,000; 0,00000
 362,47; -254,000; -254,000;    0,000; 0,00000
 362,48;   54,000;   54,000;    0,000; 0,00000
 362,49; -365,000; -365,000;    0,000; 0,00000
 362,50; -147,000; -147,000;    0,000; 0,00000
 362,51; -344,000; -344,000;    0,000; 0,00000
 362,53; -339,000; -339,000;    0,000; 0,00000
 362,54; -171,000; -171,000;    0,000; 0,00000
 362,55;   95,000;   95,000;    0,000; 0,00000
 362,56; -113,000; -113,000;    0,000; 0,00000
 362,57; -234,000; -234,000;    0,000; 0,00000
 362,59;  -85,000;  -85,000;    0,000; 0,00000
 362,60; -336,000; -336,000;    0,000; 0,00000
 362,61;   90,000;   90,000;    0,000; 0,00000
 362,62;  119,000;  119,000;    0,000; 0,00000
 362,63; -245,000; -245,000;    0,000; 0,00000
 362,65; -179,000; -179,000;    0,000; 0,00000
 362,66;    8,000;    8,000;    0,000; 0,00000
 362,67; -221,000; -221,000;    0,000; 0,00000
 362,68; -242,000; -242,000;    0,000; 0,00000
 362,69;  147,000;  147,000;    0,000; 0,00000
 362,70; -513,000; -513,000;    0,000; 0,00000
 362,72; -158,000; -158,000;    0,000; 0,00000
 362,73; -272,000; -272,000;    0,000; 0,00000
 362,74; -179,000; -179,000;    0,000; 0,00000
 362,75; -450,000; -450,000;    0,000; 0,00000
 362,76; -187,000; -187,000;    0,000; 0,00000
 362,77; -221,000; -221,000;    0,000; 0,00000
 362,79;  -90,000;  -90,000;    0,000; 0,00000
 362,80;  671,000;  671,000;    0,000; 0,00000
 362,81; -431,000; -431,000;    0,000; 0,00000
 362,82;  557,000;  557,000;    0,000; 0,00000
 362,83;  -29,000;  -29,000;    0,000; 0,00000
 362,85; -581,000; -581,000;    0,000; 0,00000
 362,86; -205,000; -205,000;    0,000; 0,00000
 362,87; -399,000; -399,000;    0,000; 0,00000
 362,88;  268,000;  268,000;    0,000; 0,00000
 362,89; -174,000; -174,000;    0,000; 0,00000
 362,90;  309,000;  309,000;    0,000; 0,00000
 362,92; -140,000; -140,000;    0,000; 0,00000
 362,93; -316,000; -316,000;    0,000; 0,00000
 362,94;  -64,000;  -64,000;    0,000; 0,00000
 362,95; -539,000; -539,000;    0,000; 0,00000
 362,96;  531,000;  531,000;    0,000; 0,00000
 362,97;   50,000;   50,000;    0,000; 0,00000
 362,99; -668,000; -668,000;    0,000; 0,00000
 363,00; -338,000; -338,000;    0,000; 0,00000
 363,01; -307,000; -307,000;    0,000; 0,00000
 363,02; -145,000; -145,000;    0,000; 0,00000
 363,03; -451,000; -451,000;    0,000; 0,00000
 363,05;   98,000;   98,000;    0,000; 0,00000
 363,06;   37,000;   37,000;    0,000; 0,00000
 363,07;  634,000;  634,000;    0,000; 0,00000
 363,08; -514,000; -514,000;    0,000; 0,00000
 363,09;   48,000;   48,000;    0,000; 0,00000
 363,10; -235,000; -235,000;    0,000; 0,00000
 363,12; -414,000; -414,000;    0,000; 0,00000
 363,13; -451,000; -451,000;    0,000; 0,00000
 363,14; -417,000; -417,000;    0,000; 0,00000
 363,15; -418,000; -418,000;    0,000; 0,00000
 363,16; -276,000; -276,000;    0,000; 0,00000
 363,17; -691,000; -691,000;    0,000; 0,00000
 363,19; -512,000; -512,000;    0,000; 0,00000
 363,20;  -82,000;  -82,000;    0,000; 0,00000
 363,21;   31,000;   31,000;    0,000; 0,00000
 363,22;   -6,000;   -6,000;    0,000; 0,00000
 363,23; -308,000; -308,000;    0,000; 0,00000
 363,24; -190,000; -190,000;    0,000; 0,00000
 363,26;  685,000;  685,000;    0,000; 0,00000
 363,27;  398,000;  398,000;    0,000; 0,00000
 363,28;  -15,000;  -15,000;    0,000; 0,00000
 363,29; -246,000; -246,000;    0,000; 0,00000
 363,30;  -61,000;  -61,000;    0,000; 0,00000
 363,31; -239,000; -239,000;    0,000; 0,00000
 363,33;  375,000;  375,000;    0,000; 0,00000
 363,34; -171,000; -171,000;    0,000; 0,00000
 363,35; -311,000; -311,000;    0,000; 0,00000
 363,36; -590,000; -590,000;    0,000; 0,00000
 363,37; -318,000; -318,000;    0,000; 0,00000
 363,38; -172,000; -172,000;    0,000; 0,00000
 363,40; -122,000; -122,000;    0,000; 0,00000
 363,41;  113,000;  113,000;    0,000; 0,00000
 363,42;  121,000;  121,000;    0,000; 0,00000
 363,43; -559,000; -559,000;    0,000; 0,00000
 363,44; -584,000; -584,000;    0,000; 0,00000
 363,45; -453,000; -453,000;    0,000; 0,00000
 363,47;  582,000;  582,000;    0,000; 0,00000
 363,48;   75,000;   75,000;    0,000; 0,00000
 363,49;   16,000;   16,000;    0,000; 0,00000
 363,50; -242,000; -242,000;    0,000; 0,00000
 363,51; -391,000; -391,000;    0,000; 0,00000
 363,52; -553,000; -553,000;    0,000; 0,00000
 363,53;  -79,000;  -79,000;    0,000; 0,00000
 363,55; -480,000; -480,000;    0,000; 0,00000
 363,56; -429,000; -429,000;    0,000; 0,00000
 363,57; -409,000; -409,000;    0,000; 0,00000
 363,58;  -29,000;  -29,000;    0,000; 0,00000
 363,59; -307,000; -307,000;    0,000; 0,00000
 363,60;  -24,000;  -24,000;    0,000; 0,00000
 363,62; -450,000; -450,000;    0,000; 0,00000
 363,63; -185,000; -185,000;    0,000; 0,00000
 363,64; -210,000; -210,000;    0,000; 0,00000
 363,65; -458,000; -458,000;    0,000; 0,00000
 363,66; -282,000; -282,000;    0,000; 0,00000
 363,67;  -73,000;  -73,000;    0,000; 0,00000
 363,69; -114,000; -114,000;    0,000; 0,00000
 363,70; -151,000; -151,000;    0,000; 0,00000
 363,71; -195,000; -195,000;    0,000; 0,00000
 363,72; -389,000; -389,000;    0,000; 0,00000
 363,73;  -98,000;  -98,000;    0,000; 0,00000
 363,74; -233,000; -233,000;    0,000; 0,00000
 363,75; -291,000; -291,000;    0,000; 0,00000
 363,77; -358,000; -358,000;    0,000; 0,00000
 363,78; -326,000; -326,000;    0,000; 0,00000
 363,79;  457,000;  457,000;    0,000; 0,00000
 363,80; -134,000; -134,000;    0,000; 0,00000
 363,81; -280,000; -280,000;    0,000; 0,00000
 363,82; -495,000; -495,000;    0,000; 0,00000
 363,84; -211,000; -211,000;    0,000; 0,00000
 363,85; -135,000; -135,000;    0,000; 0,00000
 363,86;  199,000;  199,000;    0,000; 0,00000
 363,87; -298,000; -298,000;    0,000; 0,00000
 363,88;  -98,000;  -98,000;    0,000; 0,00000
 363,89; -525,000; -525,000;    0,000; 0,00000
 363,90;  166,000;  166,000;    0,000; 0,00000
 363,92; -462,000; -462,000;    0,000; 0,00000
 363,93; -173,000; -173,000;    0,000; 0,00000
 363,94; -215,000; -215,000;    0,000; 0,00000
 363,95;  149,000;  149,000;    0,000; 0,00000
 363,96; -479,000; -479,000;    0,000; 0,00000
 363,97;  -33,000;  -33,000;    0,000; 0,00000
 363,99; -204,000; -204,000;    0,000; 0,00000
 364,00; -302,000; -302,000;    0,000; 0,00000
 364,01; -287,000; -287,000;    0,000; 0,00000
 364,02; -350,000; -350,000;    0,000; 0,00000
 364,03;  362,000;  362,000;    0,000; 0,00000
 364,04;  -28,000;  -28,000;    0,000; 0,00000
 364,05; -179,000; -179,000;    0,000; 0,00000
 364,07;  -40,000;  -40,000;    0,000; 0,00000
 364,08; -277,000; -277,000;    0,000; 0,00000
 364,09; 1125,000; 1125,000;    0,000; 0,00000
 364,10; -228,000; -228,000;    0,000; 0,00000
 364,11; -134,000; -134,000;    0,000; 0,00000
 364,12; -408,000; -408,000;    0,000; 0,00000
 364,13;  -69,000;  -69,000;    0,000; 0,00000
 364,15; -313,000; -313,000;    0,000; 0,00000
 364,16;   10,000;   10,000;    0,000; 0,00000
 364,17; -663,000; -663,000;    0,000; 0,00000
 364,18; -488,000; -488,000;    0,000; 0,00000
 364,19; -318,000; -318,000;    0,000; 0,00000
 364,20;  121,000;  121,000;    0,000; 0,00000
 364,21; -431,000; -431,000;    0,000; 0,00000
 364,23;   34,000;   34,000;    0,000; 0,00000
 364,24; -486,000; -486,000;    0,000; 0,00000
 364,25; -337,000; -337,000;    0,000; 0,00000
 364,26; -203,000; -203,000;    0,000; 0,00000
 364,27;   -8,000;   -8,000;    0,000; 0,00000
 364,28; -555,000; -555,000;    0,000; 0,00000
 364,29; -151,000; -151,000;    0,000; 0,00000
 364,31;   34,000;   34,000;    0,000; 0,00000
 364,32; -420,000; -420,000;    0,000; 0,00000
 364,33; -370,000; -370,000;    0,000; 0,00000
 364,34; -340,000; -340,000;    0,000; 0,00000
 364,35;  125,000;  125,000;    0,000; 0,00000
 364,36; -143,000; -143,000;    0,000; 0,00000
 364,37; -610,000; -610,000;    0,000; 0,00000
 364,39; -147,000; -147,000;    0,000; 0,00000
 364,40; -208,000; -208,000;    0,000; 0,00000
 364,41;  108,000;  108,000;    0,000; 0,00000
 364,42; -451,000; -451,000;    0,000; 0,00000
 364,43; -125,000; -125,000;    0,000; 0,00000
 364,44; -351,000; -351,000;    0,000; 0,00000
 364,45;  -56,000;  -56,000;    0,000; 0,00000
 364,46; -460,000; -460,000;    0,000; 0,00000
 364,48; -290,000; -290,000;    0,000; 0,00000
 364,49; -248,000; -248,000;    0,000; 0,00000
 364,50;   10,000;   10,000;    0,000; 0,00000
 364,51; -250,000; -250,000;    0,000; 0,00000
 364,52;  112,000;  112,000;    0,000; 0,00000
 364,53; -455,000; -455,000;    0,000; 0,00000
 364,54; -208,000; -208,000;    0,000; 0,00000
 364,56; -545,000; -545,000;    0,000; 0,00000
 364,57;   13,000;   13,000;    0,000; 0,00000
 364,58; -632,000; -632,000;    0,000; 0,00000
 364,59; -384,000; -384,000;    0,000; 0,00000
 364,60; -148,000; -148,000;    0,000; 0,00000
 364,61; -355,000; -355,000;    0,000; 0,00000
 364,62; -149,000; -149,000;    0,000; 0,00000
 364,64; -296,000; -296,000;    0,000; 0,00000
 364,65;    6,000;    6,000;    0,000; 0,00000
 364,66; -280,000; -280,000;    0,000; 0,00000
 364,67;  203,000;  203,000;    0,000; 0,00000
 364,68; -295,000; -295,000;    0,000; 0,00000
 364,69; -364,000; -364,000;    0,000; 0,00000
 364,70; 1321,000; 1321,000;    0,000; 0,00000
 364,71; -172,000; -172,000;    0,000; 0,00000
 364,73; -161,000; -161,000;    0,000; 0,00000
 364,74;  -83,000;  -83,000;    0,000; 0,00000
 364,75; -308,000; -308,000;    0,000; 0,00000
 364,76;  -23,000;  -23,000;    0,000; 0,00000
 364,77; -302,000; -302,000;    0,000; 0,00000
 364,78; -494,000; -494,000;    0,000; 0,00000
 364,79; -156,000; -156,000;    0,000; 0,00000
 364,80; -394,000; -394,000;    0,000; 0,00000
 364,82; -316,000; -316,000;    0,000; 0,00000
 364,83; -659,000; -659,000;    0,000; 0,00000
 364,84;  123,000;  123,000;    0,000; 0,00000
 364,85; -646,000; -646,000;    0,000; 0,00000
 364,86;  103,000;  103,000;    0,000; 0,00000
 364,87; -190,000; -190,000;    0,000; 0,00000
 364,88;   46,000;   46,000;    0,000; 0,00000
 364,89;   20,000;   20,000;    0,000; 0,00000
 364,91; -397,000; -397,000;    0,000; 0,00000
 364,92; -294,000; -294,000;    0,000; 0,00000
 364,93; -407,000; -407,000;    0,000; 0,00000
 364,94;  -27,000;  -27,000;    0,000; 0,00000
 364,95; -218,000; -218,000;    0,000; 0,00000
 364,96; -270,000; -270,000;    0,000; 0,00000
 364,97; -383,000; -383,000;    0,000; 0,00000
 364,98;   59,000;   59,000;    0,000; 0,00000
 365,00;   54,000;   54,000;    0,000; 0,00000
 365,01; -627,000; -627,000;    0,000; 0,00000
 365,02; -337,000; -337,000;    0,000; 0,00000
 365,03; -193,000; -193,000;    0,000; 0,00000
 365,04;   85,000;   85,000;    0,000; 0,00000
 365,05; -599,000; -599,000;    0,000; 0,00000
 365,06; -500,000; -500,000;    0,000; 0,00000
 365,07; -472,000; -472,000;    0,000; 0,00000
 365,09; -117,000; -117,000;    0,000; 0,00000
 365,10; -373,000; -373,000;    0,000; 0,00000
 365,11; -494,000; -494,000;    0,000; 0,00000
 365,12; -106,000; -106,000;    0,000; 0,00000
 365,13; -238,000; -238,000;    0,000; 0,00000
 365,14;   64,000;   64,000;    0,000; 0,00000
 365,15;  207,000;  207,000;    0,000; 0,00000
 365,16; -167,000; -167,000;    0,000; 0,00000
 365,18;    7,000;    7,000;    0,000; 0,00000
 365,19;  -19,000;  -19,000;    0,000; 0,00000
 365,20; -370,000; -370,000;    0,000; 0,00000
 365,21;  400,000;  400,000;    0,000; 0,00000
 365,22;  192,000;  192,000;    0,000; 0,00000
 365,23; -360,000; -360,000;    0,000; 0,00000
 365,24; -410,000; -410,000;    0,000; 0,00000
 365,25;   31,000;   31,000;    0,000; 0,00000
 365,26; -172,000; -172,000;    0,000; 0,00000
 365,28; -516,000; -516,000;    0,000; 0,00000
 365,29; -420,000; -420,000;    0,000; 0,00000
 365,30;   85,000;   85,000;    0,000; 0,00000
 365,31; -185,000; -185,000;    0,000; 0,00000
 365,32; -458,000; -458,000;    0,000; 0,00000
 365,33; -462,000; -462,000;    0,000; 0,00000
 365,34; -394,000; -394,000;    0,000; 0,00000
 365,35; -360,000; -360,000;    0,000; 0,00000
 365,36; -674,000; -674,000;    0,000; 0,00000
 365,38;  -15,000;  -15,000;    0,000; 0,00000
 365,39;  -33,000;  -33,000;    0,000; 0,00000
 365,40; -513,000; -513,000;    0,000; 0,00000
 365,41; -554,000; -554,000;    0,000; 0,00000
 365,42; -459,000; -459,000;    0,000; 0,00000
 365,43;   49,000;   49,000;    0,000; 0,00000
 365,44;  215,000;  215,000;    0,000; 0,00000
 365,45; -764,000; -764,000;    0,000; 0,00000
 365,46; -163,000; -163,000;    0,000; 0,00000
 365,48; -329,000; -329,000;    0,000; 0,00000
 365,49;  -56,000;  -56,000;    0,000; 0,00000
 365,50; -462,000; -462,000;    0,000; 0,00000
 365,51;  218,000;  218,000;    0,000; 0,00000
 365,52; -213,000; -213,000;    0,000; 0,00000
 365,53;  327,000;  327,000;    0,000; 0,00000
 365,54; -204,000; -204,000;    0,000; 0,00000
 365,55; -291,000; -291,000;    0,000; 0,00000
 365,56; -165,000; -165,000;    0,000; 0,00000
 365,58;   19,000;   19,000;    0,000; 0,00000
 365,59; -646,000; -646,000;    0,000; 0,00000
 365,60; -120,000; -120,000;    0,000; 0,00000
 365,61; -143,000; -143,000;    0,000; 0,00000
 365,62; -375,000; -375,000;    0,000; 0,00000
 365,63; -458,000; -458,000;    0,000; 0,00000
 365,64;  -85,000;  -85,000;    0,000; 0,00000
 365,65;  352,000;  352,000;    0,000; 0,00000
 365,66;  -86,000;  -86,000;    0,000; 0,00000
 365,68; -235,000; -235,000;    0,000; 0,00000
 365,69; -617,000; -617,000;    0,000; 0,00000
 365,70; -286,000; -286,000;    0,000; 0,00000
 365,71;  -80,000;  -80,000;    0,000; 0,00000
 365,72;   35,000;   35,000;    0,000; 0,00000
 365,73;  -50,000;  -50,000;    0,000; 0,00000
 365,74; -504,000; -504,000;    0,000; 0,00000
 365,75; -291,000; -291,000;    0,000; 0,00000
 365,76;   58,000;   58,000;    0,000; 0,00000
 365,77; -477,000; -477,000;    0,000; 0,00000
 365,79; -349,000; -349,000;    0,000; 0,00000
 365,80;   82,000;   82,000;    0,000; 0,00000
 365,81;  123,000;  123,000;    0,000; 0,00000
 365,82; -183,000; -183,000;    0,000; 0,00000
 365,83;   44,000;   44,000;    0,000; 0,00000
 365,84; -141,000; -141,000;    0,000; 0,00000
 365,85; -223,000; -223,000;    0,000; 0,00000
 365,86;   21,000;   21,000;    0,000; 0,00000
 365,87; -361,000; -361,000;    0,000; 0,00000
 365,88; -246,000; -246,000;    0,000; 0,00000
 365,90;  162,000;  162,000;    0,000; 0,00000
 365,91;  690,000;  690,000;    0,000; 0,00000
 365,92; -451,000; -451,000;    0,000; 0,00000
 365,93; -335,000; -335,000;    0,000; 0,00000
 365,94;   97,000;   97,000;    0,000; 0,00000
 365,95; -271,000; -271,000;    0,000; 0,00000
 365,96; -281,000; -281,000;    0,000; 0,00000
 365,97; -210,000; -210,000;    0,000; 0,00000
 365,98;  101,000;  101,000;    0,000; 0,00000
 365,99; -458,000; -458,000;    0,000; 0,00000
 366,01;  265,000;  265,000;    0,000; 0,00000
 366,02; -123,000; -123,000;    0,000; 0,00000
 366,03; -163,000; -163,000;    0,000; 0,00000
 366,04; -406,000; -406,000;    0,000; 0,00000
 366,05;  303,000;  303,000;    0,000; 0,00000
 366,06;   14,000;   14,000;    0,000; 0,00000
 366,07; -613,000; -613,000;    0,000; 0,00000
 366,08; -432,000; -432,000;    0,000; 0,00000
 366,09;  -17,000;  -17,000;    0,000; 0,00000
 366,10; -613,000; -613,000;    0,000; 0,00000
 366,11; -377,000; -377,000;    0,000; 0,00000
 366,13; -289,000; -289,000;    0,000; 0,00000
 366,14; -464,000; -464,000;    0,000; 0,00000
 366,15; -511,000; -511,000;    0,000; 0,00000
 366,16;  -46,000;  -46,000;    0,000; 0,00000
 366,17;   65,000;   65,000;    0,000; 0,00000
 366,18; -102,000; -102,000;    0,000; 0,00000
 366,19;  736,000;  736,000;    0,000; 0,00000
 366,20; -483,000; -483,000;    0,000; 0,00000
 366,21; -333,000; -333,000;    0,000; 0,00000
 366,22; -561,000; -561,000;    0,000; 0,00000
 366,24; -267,000; -267,000;    0,000; 0,00000
 366,25; -590,000; -590,000;    0,000; 0,00000
 366,26; -336,000; -336,000;    0,000; 0,00000
 366,27; -446,000; -446,000;    0,000; 0,00000
 366,28;  167,000;  167,000;    0,000; 0,00000
 366,29; -475,000; -475,000;    0,000; 0,00000
 366,30; -241,000; -241,000;    0,000; 0,00000
 366,31; -488,000; -488,000;    0,000; 0,00000
 366,32;  283,000;  283,000;    0,000; 0,00000
 366,33; -620,000; -620,000;    0,000; 0,00000
 366,34;  -24,000;  -24,000;    0,000; 0,00000
 366,35;  -66,000;  -66,000;    0,000; 0,00000
 366,37;  592,000;  592,000;    0,000; 0,00000
 366,38; -548,000; -548,000;    0,000; 0,00000
 366,39;  -62,000;  -62,000;    0,000; 0,00000
 366,40;   94,000;   94,000;    0,000; 0,00000
 366,41;  119,000;  119,000;    0,000; 0,00000
 366,42; -476,000; -476,000;    0,000; 0,00000
 366,43;   16,000;   16,000;    0,000; 0,00000
 366,44; -201,000; -201,000;    0,000; 0,00000
 366,45; -121,000; -121,000;    0,000; 0,00000
 366,46; -414,000; -414,000;    0,000; 0,00000
 366,47;  -24,000;  -24,000;    0,000; 0,00000
 366,49;  946,000;  946,000;    0,000; 0,00000
 366,50; -265,000; -265,000;    0,000; 0,00000
 366,51;   84,000;   84,000;    0,000; 0,00000
 366,52; -201,000; -201,000;    0,000; 0,00000
 366,53;  136,000;  136,000;    0,000; 0,00000
 366,54;  -57,000;  -57,000;    0,000; 0,00000
 366,55;  736,000;  736,000;    0,000; 0,00000
 366,56;   82,000;   82,000;    0,000; 0,00000
 366,57; -440,000; -440,000;    0,000; 0,00000
 366,58; -198,000; -198,000;    0,000; 0,00000
 366,59; -298,000; -298,000;    0,000; 0,00000
 366,60; -206,000; -206,000;    0,000; 0,00000
 366,61; -479,000; -479,000;    0,000; 0,00000
 366,63; -226,000; -226,000;    0,000; 0,00000
 366,64; -765,000; -765,000;    0,000; 0,00000
 366,65; -155,000; -155,000;    0,000; 0,00000
 366,66; -437,000; -437,000;    0,000; 0,00000
 366,67;  276,000;  276,000;    0,000; 0,00000
 366,68; -181,000; -181,000;    0,000; 0,00000
 366,69; -283,000; -283,000;    0,000; 0,00000
 366,70;   35,000;   35,000;    0,000; 0,00000
 366,71; -321,000; -321,000;    0,000; 0,00000
 366,72; -634,000; -634,000;    0,000; 0,00000
 366,73;  -73,000;  -73,000;    0,000; 0,00000
 366,74; -299,000; -299,000;    0,000; 0,00000
 366,75;  -53,000;  -53,000;    0,000; 0,00000
 366,77; -256,000; -256,000;    0,000; 0,00000
 366,78; -491,000; -491,000;    0,000; 0,00000
 366,79;  200,000;  200,000;    0,000; 0,00000
 366,80; -388,000; -388,000;    0,000; 0,00000
 366,81;  -72,000;  -72,000;    0,000; 0,00000
 366,82;  -12,000;  -12,000;    0,000; 0,00000
 366,83; -211,000; -211,000;    0,000; 0,00000
 366,84;  124,000;  124,000;    0,000; 0,00000
 366,85; -746,000; -746,000;    0,000; 0,00000
 366,86; -310,000; -310,000;    0,000; 0,00000
 366,87;  580,000;  580,000;    0,000; 0,00000
 366,88; -340,000; -340,000;    0,000; 0,00000
 366,89;  -76,000;  -76,000;    0,000; 0,00000
 366,91; -173,000; -173,000;    0,000; 0,00000
 366,92; -231,000; -231,000;    0,000; 0,00000
 366,93; -298,000; -298,000;    0,000; 0,00000
 366,94; -402,000; -402,000;    0,000; 0,00000
 366,95; -280,000; -280,000;    0,000; 0,00000
 366,96; -500,000; -500,000;    0,000; 0,00000
 366,97; -196,000; -196,000;    0,000; 0,00000
 366,98; -575,000; -575,000;    0,000; 0,00000
 366,99;  155,000;  155,000;    0,000; 0,00000
 367,00; -152,000; -152,000;    0,000; 0,00000
 367,01; -264,000; -264,000;    0,000; 0,00000
 367,02;  -20,000;  -20,000;    0,000; 0,00000
 367,03; -426,000; -426,000;    0,000; 0,00000
 367,04; -286,000; -286,000;    0,000; 0,00000
 367,06; -366,000; -366,000;    0,000; 0,00000
 367,07;  400,000;  400,000;    0,000; 0,00000
 367,08; -190,000; -190,000;    0,000; 0,00000
 367,09;   -9,000;   -9,000;    0,000; 0,00000
 367,10; -325,000; -325,000;    0,000; 0,00000
 367,11; -295,000; -295,000;    0,000; 0,00000
 367,12; -516,000; -516,000;    0,000; 0,00000
 367,13;  415,000;  415,000;    0,000; 0,00000
 367,14;    5,000;    5,000;    0,000; 0,00000
 367,15; -496,000; -496,000;    0,000; 0,00000
 367,16; -320,000; -320,000;    0,000; 0,00000
 367,17; -290,000; -290,000;    0,000; 0,00000
 367,18; -255,000; -255,000;    0,000; 0,00000
 367,19; -285,000; -285,000;    0,000; 0,00000
 367,20;  -48,000;  -48,000;    0,000; 0,00000
 367,21; -392,000; -392,000;    0,000; 0,00000
 367,23; -427,000; -427,000;    0,000; 0,00000
 367,24; -303,000; -303,000;    0,000; 0,00000
 367,25;  -71,000;  -71,000;    0,000; 0,00000
 367,26; -400,000; -400,000;    0,000; 0,00000
 367,27; -212,000; -212,000;    0,000; 0,00000
 367,28; -593,000; -593,000;    0,000; 0,00000
 367,29; -304,000; -304,000;    0,000; 0,00000
 367,30; -257,000; -257,000;    0,000; 0,00000
 367,31; -354,000; -354,000;    0,000; 0,00000
 367,32; -704,000; -704,000;    0,000; 0,00000
 367,33; -319,000; -319,000;    0,000; 0,00000
 367,34; -598,000; -598,000;    0,000; 0,00000
 367,35; -129,000; -129,000;    0,000; 0,00000
 367,36;  -77,000;  -77,000;    0,000; 0,00000
 367,37; -280,000; -280,000;    0,000; 0,00000
 367,38; -575,000; -575,000;    0,000; 0,00000
 367,40; -213,000; -213,000;    0,000; 0,00000
 367,41;  -64,000;  -64,000;    0,000; 0,00000
 367,42;  415,000;  415,000;    0,000; 0,00000
 367,43;    6,000;    6,000;    0,000; 0,00000
 367,44; -216,000; -216,000;    0,000; 0,00000
 367,45; -106,000; -106,000;    0,000; 0,00000
 367,46; -298,000; -298,000;    0,000; 0,00000
 367,47; -492,000; -492,000;    0,000; 0,00000
 367,48; -189,000; -189,000;    0,000; 0,00000
 367,49; -298,000; -298,000;    0,000; 0,00000
 367,50; -459,000; -459,000;    0,000; 0,00000
 367,51;   57,000;   57,000;    0,000; 0,00000
 367,52; -214,000; -214,000;    0,000; 0,00000
 367,53;  178,000;  178,000;    0,000; 0,00000
 367,54; -343,000; -343,000;    0,000; 0,00000
 367,55;   17,000;   17,000;    0,000; 0,00000
 367,56; -366,000; -366,000;    0,000; 0,00000
 367,57; -431,000; -431,000;    0,000; 0,00000
 367,59; -263,000; -263,000;    0,000; 0,00000
 367,60;  157,000;  157,000;    0,000; 0,00000
 367,61;  216,000;  216,000;    0,000; 0,00000
 367,62;  -51,000;  -51,000;    0,000; 0,00000
 367,63; -340,000; -340,000;    0,000; 0,00000
 367,64;  233,000;  233,000;    0,000; 0,00000
 367,65;  218,000;  218,000;    0,000; 0,00000
 367,66; -398,000; -398,000;    0,000; 0,00000
 367,67; -278,000; -278,000;    0,000; 0,00000
 367,68; -542,000; -542,000;    0,000; 0,00000
 367,69; -354,000; -354,000;    0,000; 0,00000
 367,70; -447,000; -447,000;    0,000; 0,00000
 367,71; -261,000; -261,000;    0,000; 0,00000
 367,72; -331,000; -331,000;    0,000; 0,00000
 367,73;  119,000;  119,000;    0,000; 0,00000
 367,74; -259,000; -259,000;    0,000; 0,00000
 367,75; -598,000; -598,000;    0,000; 0,00000
 367,76; -508,000; -508,000;    0,000; 0,00000
 367,77;  -16,000;  -16,000;    0,000; 0,00000
 367,78; -118,000; -118,000;    0,000; 0,00000
 367,80;  902,000;  902,000;    0,000; 0,00000
 367,81; -645,000; -645,000;    0,000; 0,00000
 367,82; -192,000; -192,000;    0,000; 0,00000
 367,83; -254,000; -254,000;    0,000; 0,00000
 367,84;  189,000;  189,000;    0,000; 0,00000
 367,85;  -85,000;  -85,000;    0,000; 0,00000
 367,86;   61,000;   61,000;    0,000; 0,00000
 367,87; -248,000; -248,000;    0,000; 0,00000
 367,88; -681,000; -681,000;    0,000; 0,00000
 367,89; -365,000; -365,000;    0,000; 0,00000
 367,90; -105,000; -105,000;    0,000; 0,00000
 367,91; -303,000; -303,000;    0,000; 0,00000
 367,92; -190,000; -190,000;    0,000; 0,00000
 367,93; -266,000; -266,000;    0,000; 0,00000
 367,94; -169,000; -169,000;    0,000; 0,00000
 367,95; -294,000; -294,000;    0,000; 0,00000
 367,96; -514,000; -514,000;    0,000; 0,00000
 367,97; -443,000; -443,000;    0,000; 0,00000
 367,98;  -57,000;  -57,000;    0,000; 0,00000
 367,99; -136,000; -136,000;    0,000; 0,00000
 368,00; -487,000; -487,000;    0,000; 0,00000
 368,01;  -75,000;  -75,000;    0,000; 0,00000
 368,02;  288,000;  288,000;    0,000; 0,00000
 368,04; -778,000; -778,000;    0,000; 0,00000
 368,05;  -28,000;  -28,000;    0,000; 0,00000
 368,06;  469,000;  469,000;    0,000; 0,00000
 368,07; -502,000; -502,000;    0,000; 0,00000
 368,08;  -18,000;  -18,000;    0,000; 0,00000
 368,09;  145,000;  145,000;    0,000; 0,00000
 368,10;   50,000;   50,000;    0,000; 0,00000
 368,11;  144,000;  144,000;    0,000; 0,00000
 368,12; -567,000; -567,000;    0,000; 0,00000
 368,13;  -47,000;  -47,000;    0,000; 0,00000
 368,14;  261,000;  261,000;    0,000; 0,00000
 368,15; -215,000; -215,000;    0,000; 0,00000
 368,16; -410,000; -410,000;    0,000; 0,00000
 368,17; -254,000; -254,000;    0,000; 0,00000
 368,18; -315,000; -315,000;    0,000; 0,00000
 368,19;  -78,000;  -78,000;    0,000; 0,00000
 368,20; -731,000; -731,000;    0,000; 0,00000
 368,21; -317,000; -317,000;    0,000; 0,00000
 368,22; -309,000; -309,000;    0,000; 0,00000
 368,23; -396,000; -396,000;    0,000; 0,00000
 368,24; -295,000; -295,000;    0,000; 0,00000
 368,25; -402,000; -402,000;    0,000; 0,00000
 368,26; -332,000; -332,000;    0,000; 0,00000
 368,27;  369,000;  369,000;    0,000; 0,00000
 368,28; -420,000; -420,000;    0,000; 0,00000
 368,29;   70,000;   70,000;    0,000; 0,00000
 368,30;  375,000;  375,000;    0,000; 0,00000
 368,32; -544,000; -544,000;    0,000; 0,00000
 368,33; -631,000; -631,000;    0,000; 0,00000
 368,34; -392,000; -392,000;    0,000; 0,00000
 368,35;  -41,000;  -41,000;    0,000; 0,00000
 368,36; -127,000; -127,000;    0,000; 0,00000
 368,37; -524,000; -524,000;    0,000; 0,00000
 368,38; -208,000; -208,000;    0,000; 0,00000
 368,39; -208,000; -208,000;    0,000; 0,00000
 368,40; -129,000; -129,000;    0,000; 0,00000
 368,41;  315,000;  315,000;    0,000; 0,00000
 368,42; -222,000; -222,000;    0,000; 0,00000
 368,43;  434,000;  434,000;    0,000; 0,00000
 368,44;  -94,000;  -94,000;    0,000; 0,00000
 368,45; -644,000; -644,000;    0,000; 0,00000
 368,46; -287,000; -287,000;    0,000; 0,00000
 368,47;   53,000;   53,000;    0,000; 0,00000
 368,48;   33,000;   33,000;    0,000; 0,00000
 368,49; -851,000; -851,000;    0,000; 0,00000
 368,50; -536,000; -536,000;    0,000; 0,00000
 368,51; -137,000; -137,000;    0,000; 0,00000
 368,52; -220,000; -220,000;    0,000; 0,00000
 368,53; -219,000; -219,000;    0,000; 0,00000
 368,54; -358,000; -358,000;    0,000; 0,00000
 368,55; -326,000; -326,000;    0,000; 0,00000
 368,56;  287,000;  287,000;    0,000; 0,00000
 368,57; -562,000; -562,000;    0,000; 0,00000
 368,58; -384,000; -384,000;    0,000; 0,00000
 368,59; -327,000; -327,000;    0,000; 0,00000
 368,60; -201,000; -201,000;    0,000; 0,00000
 368,61; -714,000; -714,000;    0,000; 0,00000
 368,62;  -47,000;  -47,000;    0,000; 0,00000
 368,63;   26,000;   26,000;    0,000; 0,00000
 368,64;   76,000;   76,000;    0,000; 0,00000
 368,65; -394,000; -394,000;    0,000; 0,00000
 368,66; -339,000; -339,000;    0,000; 0,00000
 368,67;  463,000;  463,000;    0,000; 0,00000
 368,68;  -75,000;  -75,000;    0,000; 0,00000
 368,70; -158,000; -158,000;    0,000; 0,00000
 368,71;  -57,000;  -57,000;    0,000; 0,00000
 368,72; -121,000; -121,000;    0,000; 0,00000
 368,73;  153,000;  153,000;    0,000; 0,00000
 368,74; -279,000; -279,000;    0,000; 0,00000
 368,75;  969,000;  969,000;    0,000; 0,00000
 368,76;  728,000;  728,000;    0,000; 0,00000
 368,77; -131,000; -131,000;    0,000; 0,00000
 368,78; -397,000; -397,000;    0,000; 0,00000
 368,79; -106,000; -106,000;    0,000; 0,00000
 368,80;  -39,000;  -39,000;    0,000; 0,00000
 368,81;   92,000;   92,000;    0,000; 0,00000
 368,82; -427,000; -427,000;    0,000; 0,00000
 368,83; -401,000; -401,000;    0,000; 0,00000
 368,84; -297,000; -297,000;    0,000; 0,00000
 368,85;  -64,000;  -64,000;    0,000; 0,00000
 368,86; -342,000; -342,000;    0,000; 0,00000
 368,87; -472,000; -472,000;    0,000; 0,00000
 368,88;  -80,000;  -80,000;    0,000; 0,00000
 368,89; -227,000; -227,000;    0,000; 0,00000
 368,90; -270,000; -270,000;    0,000; 0,00000
 368,91; -751,000; -751,000;    0,000; 0,00000
 368,92;   44,000;   44,000;    0,000; 0,00000
 368,93;  284,000;  284,000;    0,000; 0,00000
 368,94; -595,000; -595,000;    0,000; 0,00000
 368,95; -611,000; -611,000;    0,000; 0,00000
 368,96; -211,000; -211,000;    0,000; 0,00000
 368,97; -142,000; -142,000;    0,000; 0,00000
 368,98; -310,000; -310,000;    0,000; 0,00000
 368,99;  -60,000;  -60,000;    0,000; 0,00000
 369,00; -491,000; -491,000;    0,000; 0,00000
 369,01;  -52,000;  -52,000;    0,000; 0,00000
 369,02; -633,000; -633,000;    0,000; 0,00000
 369,03;   -9,000;   -9,000;    0,000; 0,00000
 369,04; -438,000; -438,000;    0,000; 0,00000
 369,05;   -6,000;   -6,000;    0,000; 0,00000
 369,06; -190,000; -190,000;    0,000; 0,00000
 369,07; -175,000; -175,000;    0,000; 0,00000
 369,08; -382,000; -382,000;    0,000; 0,00000
 369,09;  815,000;  815,000;    0,000; 0,00000
 369,10; -595,000; -595,000;    0,000; 0,00000
 369,11; -223,000; -223,000;    0,000; 0,00000
 369,12; -385,000; -385,000;    0,000; 0,00000
 369,13;  239,000;  239,000;    0,000; 0,00000
 369,14;  378,000;  378,000;    0,000; 0,00000
 369,15; -588,000; -588,000;    0,000; 0,00000
 369,16; -257,000; -257,000;    0,000; 0,00000
 369,17; -113,000; -113,000;    0,000; 0,00000
 369,18; -244,000; -244,000;    0,000; 0,00000
 369,19; -445,000; -445,000;    0,000; 0,00000
 369,20; -332,000; -332,000;    0,000; 0,00000
 369,21; -239,000; -239,000;    0,000; 0,00000
 369,22; -514,000; -514,000;    0,000; 0,00000
 369,23;  548,000;  548,000;    0,000; 0,00000
 369,24;  -98,000;  -98,000;    0,000; 0,00000
 369,25;   34,000;   34,000;    0,000; 0,00000
 369,26; -577,000; -577,000;    0,000; 0,00000
 369,27;  105,000;  105,000;    0,000; 0,00000
 369,28;  -78,000;  -78,000;    0,000; 0,00000
 369,29; -159,000; -159,000;    0,000; 0,00000
 369,30; -423,000; -423,000;    0,000; 0,00000
 369,31; -517,000; -517,000;    0,000; 0,00000
 369,32; -445,000; -445,000;    0,000; 0,00000
 369,33; -187,000; -187,000;    0,000; 0,00000
 369,34; -725,000; -725,000;    0,000; 0,00000
 369,35;  -82,000;  -82,000;    0,000; 0,00000
 369,36;  -28,000;  -28,000;    0,000; 0,00000
 369,37;  -41,000;  -41,000;    0,000; 0,00000
 369,38;  355,000;  355,000;    0,000; 0,00000
 369,39;    7,000;    7,000;    0,000; 0,00000
 369,40;  -15,000;  -15,000;    0,000; 0,00000
 369,41; -400,000; -400,000;    0,000; 0,00000
 369,42; -464,000; -464,000;    0,000; 0,00000
 369,43;  -53,000;  -53,000;    0,000; 0,00000
 369,44; -430,000; -430,000;    0,000; 0,00000
 369,45;   58,000;   58,000;    0,000; 0,00000
 369,46; -436,000; -436,000;    0,000; 0,00000
 369,47;  166,000;  166,000;    0,000; 0,00000
 369,48; -278,000; -278,000;    0,000; 0,00000
 369,49;  141,000;  141,000;    0,000; 0,00000
 369,50; -387,000; -387,000;    0,000; 0,00000
 369,51;  -66,000;  -66,000;    0,000; 0,00000
 369,52;  -17,000;  -17,000;    0,000; 0,00000
 369,53; -481,000; -481,000;    0,000; 0,00000
 369,54; -175,000; -175,000;    0,000; 0,00000
 369,55;  -80,000;  -80,000;    0,000; 0,00000
 369,56; -597,000; -597,000;    0,000; 0,00000
 369,57; -259,000; -259,000;    0,000; 0,00000
 369,58; -738,000; -738,000;    0,000; 0,00000
 369,59; -532,000; -532,000;    0,000; 0,00000
 369,60;  136,000;  136,000;    0,000; 0,00000
 369,61; -435,000; -435,000;    0,000; 0,00000
 369,62; -303,000; -303,000;    0,000; 0,00000
 369,63;  671,000;  671,000;    0,000; 0,00000
 369,64;  -24,000;  -24,000;    0,000; 0,00000
 369,65;  -50,000;  -50,000;    0,000; 0,00000
 369,66;  -33,000;  -33,000;    0,000; 0,00000
 369,67;  -72,000;  -72,000;    0,000; 0,00000
 369,68; -212,000; -212,000;    0,000; 0,00000
 369,69;  290,000;  290,000;    0,000; 0,00000
 369,70; -539,000; -539,000;    0,000; 0,00000
 369,71; -305,000; -305,000;    0,000; 0,00000
 369,72;   98,000;   98,000;    0,000; 0,00000
 369,73;  490,000;  490,000;    0,000; 0,00000
 369,74; -307,000; -307,000;    0,000; 0,00000
 369,75; -230,000; -230,000;    0,000; 0,00000
 369,76; -242,000; -242,000;    0,000; 0,00000
 369,77; -373,000; -373,000;    0,000; 0,00000
 369,78; -265,000; -265,000;    0,000; 0,00000
 369,79; -400,000; -400,000;    0,000; 0,00000
 369,80; -237,000; -237,000;    0,000; 0,00000
 369,81;   91,000;   91,000;    0,000; 0,00000
 369,82; -662,000; -662,000;    0,000; 0,00000
 369,83; -443,000; -443,000;    0,000; 0,00000
 369,84;  -56,000;  -56,000;    0,000; 0,00000
 369,85;  325,000;  325,000;    0,000; 0,00000
 369,86; -550,000; -550,000;    0,000; 0,00000
 369,87; -577,000; -577,000;    0,000; 0,00000
 369,88; -321,000; -321,000;    0,000; 0,00000
 369,89; -282,000; -282,000;    0,000; 0,00000
 369,90;   59,000;   59,000;    0,000; 0,00000
 369,91; -239,000; -239,000;    0,000; 0,00000
 369,92;  -52,000;  -52,000;    0,000; 0,00000
 369,93; -127,000; -127,000;    0,000; 0,00000
 369,94; -291,000; -291,000;    0,000; 0,00000
 369,95; -269,000; -269,000;    0,000; 0,00000
 369,96;  253,000;  253,000;    0,000; 0,00000
 369,97; -266,000; -266,000;    0,000; 0,00000
 369,98;  -87,000;  -87,000;    0,000; 0,00000
 369,99;  198,000;  198,000;    0,000; 0,00000
 370,00;   32,000;   32,000;    0,000; 0,00000
 370,01;  520,000;  520,000;    0,000; 0,00000
 370,02; -421,000; -421,000;    0,000; 0,00000
 370,03; -440,000; -440,000;    0,000; 0,00000
 370,04;  595,000;  595,000;    0,000; 0,00000
 370,05; -106,000; -106,000;    0,000; 0,00000
 370,06; -384,000; -384,000;    0,000; 0,00000
 370,07; -443,000; -443,000;    0,000; 0,00000
 370,08; -580,000; -580,000;    0,000; 0,00000
 370,09;  949,000;  949,000;    0,000; 0,00000
 370,10; -363,000; -363,000;    0,000; 0,00000
 370,11; -226,000; -226,000;    0,000; 0,00000
 370,12; -373,000; -373,000;    0,000; 0,00000
 370,13; -486,000; -486,000;    0,000; 0,00000
 370,14;  -25,000;  -25,000;    0,000; 0,00000
 370,14; -142,000; -142,000;    0,000; 0,00000
 370,15; -253,000; -253,000;    0,000; 0,00000
 370,16; -371,000; -371,000;    0,000; 0,00000
 370,17; -645,000; -645,000;    0,000; 0,00000
 370,18;    3,000;    3,000;    0,000; 0,00000
 370,19;  305,000;  305,000;    0,000; 0,00000
 370,20;  343,000;  343,000;    0,000; 0,00000
 370,21;  -93,000;  -93,000;    0,000; 0,00000
 370,22; -327,000; -327,000;    0,000; 0,00000
 370,23; -380,000; -380,000;    0,000; 0,00000
 370,24;  -62,000;  -62,000;    0,000; 0,00000
 370,25;  514,000;  514,000;    0,000; 0,00000
 370,26; -723,000; -723,000;    0,000; 0,00000
 370,27;  129,000;  129,000;    0,000; 0,00000
 370,28;  322,000;  322,000;    0,000; 0,00000
 370,29; -817,000; -817,000;    0,000; 0,00000
 370,30;  183,000;  183,000;    0,000; 0,00000
 370,31; -273,000; -273,000;    0,000; 0,00000
 370,32;   20,000;   20,000;    0,000; 0,00000
 370,33; -683,000; -683,000;    0,000; 0,00000
 370,34;    7,000;    7,000;    0,000; 0,00000
 370,35; -320,000; -320,000;    0,000; 0,00000
 370,36;   45,000;   45,000;    0,000; 0,00000
 370,37; -512,000; -512,000;    0,000; 0,00000
 370,38; -130,000; -130,000;    0,000; 0,00000
 370,39; -440,000; -440,000;    0,000; 0,00000
 370,40; -260,000; -260,000;    0,000; 0,00000
 370,41; -397,000; -397,000;    0,000; 0,00000
 370,42; -512,000; -512,000;    0,000; 0,00000
 370,43; -237,000; -237,000;    0,000; 0,00000
 370,44; -124,000; -124,000;    0,000; 0,00000
 370,45; -612,000; -612,000;    0,000; 0,00000
 370,46;   33,000;   33,000;    0,000; 0,00000
 370,47;  272,000;  272,000;    0,000; 0,00000
 370,48;  -49,000;  -49,000;    0,000; 0,00000
 370,49; -758,000; -758,000;    0,000; 0,00000
 370,50; -526,000; -526,000;    0,000; 0,00000
 370,50; -327,000; -327,000;    0,000; 0,00000
 370,51; -134,000; -134,000;    0,000; 0,00000
 370,52;  616,000;  616,000;    0,000; 0,00000
 370,53; -269,000; -269,000;    0,000; 0,00000
 370,54;  -79,000;  -79,000;    0,000; 0,00000
 370,55; -220,000; -220,000;    0,000; 0,00000
 370,56; -239,000; -239,000;    0,000; 0,00000
 370,57; -292,000; -292,000;    0,000; 0,00000
 370,58; -136,000; -136,000;    0,000; 0,00000
 370,59;  196,000;  196,000;    0,000; 0,00000
 370,60; -362,000; -362,000;    0,000; 0,00000
 370,61; -158,000; -158,000;    0,000; 0,00000
 370,62;  -28,000;  -28,000;    0,000; 0,00000
 370,63; -262,000; -262,000;    0,000; 0,00000
 370,64; -306,000; -306,000;    0,000; 0,00000
 370,65; -113,000; -113,000;    0,000; 0,00000
 370,66; -467,000; -467,000;    0,000; 0,00000
 370,67;  150,000;  150,000;    0,000; 0,00000
 370,68; -299,000; -299,000;    0,000; 0,00000
 370,69; -459,000; -459,000;    0,000; 0,00000
 370,70;  -84,000;  -84,000;    0,000; 0,00000
 370,71; -324,000; -324,000;    0,000; 0,00000
 370,72; -511,000; -511,000;    0,000; 0,00000
 370,73; -422,000; -422,000;    0,000; 0,00000
 370,74; -289,000; -289,000;    0,000; 0,00000
 370,75; -230,000; -230,000;    0,000; 0,00000
 370,76; -530,000; -530,000;    0,000; 0,00000
 370,76; -202,000; -202,000;    0,000; 0,00000
 370,77; -407,000; -407,000;    0,000; 0,00000
 370,78;  157,000;  157,000;    0,000; 0,00000
 370,79; -487,000; -487,000;    0,000; 0,00000
 370,80;  449,000;  449,000;    0,000; 0,00000
 370,81;  -93,000;  -93,000;    0,000; 0,00000
 370,82;   72,000;   72,000;    0,000; 0,00000
 370,83;   33,000;   33,000;    0,000; 0,00000
 370,84; -302,000; -302,000;    0,000; 0,00000
 370,85;  -47,000;  -47,000;    0,000; 0,00000
 370,86;  353,000;  353,000;    0,000; 0,00000
 370,87; -302,000; -302,000;    0,000; 0,00000
 370,88; -106,000; -106,000;    0,000; 0,00000
 370,89; -183,000; -183,000;    0,000; 0,00000
 370,90;  -88,000;  -88,000;    0,000; 0,00000
 370,91; -417,000; -417,000;    0,000; 0,00000
 370,92;  125,000;  125,000;    0,000; 0,00000
 370,93; -429,000; -429,000;    0,000; 0,00000
 370,94;   40,000;   40,000;    0,000; 0,00000
 370,95;   22,000;   22,000;    0,000; 0,00000
 370,96; -197,000; -197,000;    0,000; 0,00000
 370,97; -451,000; -451,000;    0,000; 0,00000
 370,98;  -71,000;  -71,000;    0,000; 0,00000
 370,98; -126,000; -126,000;    0,000; 0,00000
 370,99; 2401,000; 2401,000;    0,000; 0,00000
 371,00;  -10,000;  -10,000;    0,000; 0,00000
 371,01; -104,000; -104,000;    0,000; 0,00000
 371,02;  233,000;  233,000;    0,000; 0,00000
 371,03; -515,000; -515,000;    0,000; 0,00000

